time,seconds_elapsed,z,y,x
1773251345588168700,0.063168701171875,-0.3316802978515625,-0.9439239501953125,0.04150390625
1773251345598205400,0.073205322265625,-0.3393096923828125,-0.93157958984375,0.0189056396484375
1773251345608241700,0.08324169921875,-0.355621337890625,-0.9274139404296875,-0.0304412841796875
1773251345618277600,0.093277587890625,-0.392425537109375,-0.9211578369140625,-0.092681884765625
1773251345628314400,0.103314453125,-0.41650390625,-0.9140167236328125,-0.1370697021484375
1773251345638350600,0.1133505859375,-0.415313720703125,-0.9108734130859375,-0.14312744140625
1773251345648386600,0.123386474609375,-0.4020843505859375,-0.9139556884765625,-0.084991455078125
1773251345658423600,0.133423583984375,-0.406585693359375,-0.9403076171875,0.029541015625
1773251345668459800,0.143459716796875,-0.42218017578125,-0.9907684326171875,0.0810699462890625
1773251345678495700,0.153495849609375,-0.3969268798828125,-1.030487060546875,0.0720672607421875
1773251345688531700,0.16353173828125,-0.3602294921875,-1.0582733154296875,0.09033203125
1773251345698568700,0.173568603515625,-0.365753173828125,-1.0625457763671875,-0.014190673828125
1773251345708604700,0.183604736328125,-0.3752288818359375,-1.056396484375,-0.0659637451171875
1773251345718640600,0.193640625,-0.3761138916015625,-1.0596160888671875,-0.0551910400390625
1773251345728677600,0.203677734375,-0.3709564208984375,-1.0693511962890625,-0.0556640625
1773251345738713600,0.213713623046875,-0.35516357421875,-1.0955047607421875,-0.0398406982421875
1773251345748749600,0.22374951171875,-0.3508758544921875,-1.1195068359375,0.02105712890625
1773251345758786600,0.23378662109375,-0.378692626953125,-1.1266632080078125,0.066680908203125
1773251345768822800,0.24382275390625,-0.3943023681640625,-1.1204833984375,0.0238800048828125
1773251345778858800,0.253858642578125,-0.3838653564453125,-1.1080322265625,-0.0450592041015625
1773251345788895500,0.2638955078125,-0.39666748046875,-1.090728759765625,-0.07220458984375
1773251345798931700,0.273931640625,-0.4232025146484375,-1.07000732421875,-0.125640869140625
1773251345808967700,0.2839677734375,-0.410400390625,-1.043853759765625,-0.2095184326171875
1773251345819003600,0.294003662109375,-0.3907318115234375,-0.9990081787109375,-0.18707275390625
1773251345829040600,0.30404052734375,-0.427703857421875,-0.935089111328125,-0.0657196044921875
1773251345839076600,0.31407666015625,-0.4568023681640625,-0.882049560546875,0.04937744140625
1773251345849112600,0.324112548828125,-0.4327239990234375,-0.8511199951171875,0.1890411376953125
1773251345859149600,0.334149658203125,-0.3842620849609375,-0.83050537109375,0.1688079833984375
1773251345869185500,0.344185546875,-0.3758087158203125,-0.7971649169921875,0.1009979248046875
1773251345879221500,0.354221435546875,-0.367431640625,-0.7644500732421875,0.024993896484375
1773251345889258500,0.364258544921875,-0.354736328125,-0.705718994140625,-0.03131103515625
1773251345899294700,0.374294677734375,-0.3813934326171875,-0.6369171142578125,-0.0411224365234375
1773251345909330700,0.38433056640625,-0.3285980224609375,-0.6199798583984375,-0.031097412109375
1773251345919366700,0.39436669921875,-0.28717041015625,-0.6568145751953125,0.157958984375
1773251345929403600,0.404403564453125,-0.3113555908203125,-0.714385986328125,0.3836517333984375
1773251345939439600,0.414439697265625,-0.3660430908203125,-0.751983642578125,0.409210205078125
1773251345949475600,0.4244755859375,-0.3282470703125,-0.7628021240234375,0.254150390625
1773251345959512600,0.4345126953125,-0.2504425048828125,-0.7719879150390625,0.22686767578125
1773251345969548500,0.444548583984375,-0.19439697265625,-0.8016510009765625,0.2044525146484375
1773251345979584500,0.45458447265625,-0.1898345947265625,-0.8060455322265625,0.07269287109375
1773251345989621800,0.464621826171875,-0.130828857421875,-0.763092041015625,-0.0547332763671875
1773251345999657700,0.47465771484375,-0.0559234619140625,-0.7491912841796875,-0.0478515625
1773251346009693700,0.484693603515625,-0.0163116455078125,-0.844573974609375,0.058349609375
1773251346019730700,0.494730712890625,-0.058929443359375,-0.9474639892578125,0.20166015625
1773251346029766700,0.5047666015625,-0.1334381103515625,-1.0087127685546875,0.2344512939453125
1773251346039802600,0.514802734375,-0.1466522216796875,-1.04705810546875,0.187713623046875
1773251346049838600,0.524838623046875,-0.0964202880859375,-1.0596923828125,0.07244873046875
1773251346059875600,0.53487548828125,-0.0264892578125,-1.031524658203125,0.0119171142578125
1773251346069911600,0.54491162109375,0.050994873046875,-1.0098419189453125,0.0964813232421875
1773251346079947500,0.554947509765625,0.1015167236328125,-0.982391357421875,0.1730194091796875
1773251346089984800,0.56498486328125,0.046112060546875,-0.9593963623046875,0.23101806640625
1773251346100020700,0.575020751953125,-0.0401153564453125,-0.92633056640625,0.21484375
1773251346110056700,0.585056640625,-0.05926513671875,-0.911346435546875,0.18353271484375
1773251346120093700,0.59509375,0.00921630859375,-1.0074920654296875,0.32110595703125
1773251346130129700,0.605129638671875,0.026763916015625,-1.1207733154296875,0.3770294189453125
1773251346140165600,0.61516552734375,-0.013458251953125,-1.1380767822265625,0.2874755859375
1773251346150202600,0.62520263671875,-0.0460205078125,-1.0713348388671875,0.199859619140625
1773251346160238600,0.635238525390625,-0.08782958984375,-0.9853668212890625,0.2251434326171875
1773251346170274600,0.645274658203125,-0.127685546875,-0.91009521484375,0.2856292724609375
1773251346180310500,0.655310546875,-0.13555908203125,-0.828369140625,0.23223876953125
1773251346190347800,0.66534765625,-0.197052001953125,-0.776458740234375,0.236358642578125
1773251346200383700,0.6753837890625,-0.29071044921875,-0.7786865234375,0.2915802001953125
1773251346210419700,0.685419677734375,-0.2939910888671875,-0.8549652099609375,0.2869873046875
1773251346220456700,0.695456787109375,-0.1946563720703125,-0.97357177734375,0.21026611328125
1773251346230492700,0.70549267578125,-0.079986572265625,-1.0801239013671875,0.1009368896484375
1773251346240528600,0.715528564453125,-0.0468597412109375,-1.119140625,0.1182098388671875
1773251346250565400,0.7255654296875,-0.0375518798828125,-1.0589141845703125,0.1114044189453125
1773251346260601300,0.735601318359375,-0.064788818359375,-0.94097900390625,0.095001220703125
1773251346270637300,0.74563720703125,-0.124176025390625,-0.8499603271484375,0.0713348388671875
1773251346280674600,0.755674560546875,-0.1204071044921875,-0.8326873779296875,0.10186767578125
1773251346290710500,0.76571044921875,-0.1332550048828125,-0.8270416259765625,0.1470947265625
1773251346300746500,0.77574658203125,-0.0972747802734375,-0.826690673828125,0.0415802001953125
1773251346310782500,0.785782470703125,-0.0573272705078125,-0.867340087890625,-0.036956787109375
1773251346320819500,0.7958193359375,-0.120941162109375,-0.9078369140625,-0.0912933349609375
1773251346330855400,0.80585546875,-0.1102142333984375,-0.9375,-0.1408843994140625
1773251346340891400,0.815891357421875,-0.06903076171875,-1.0010833740234375,-0.057525634765625
1773251346350928400,0.825928466796875,0.00128173828125,-1.0222930908203125,-0.079010009765625
1773251346360964400,0.83596435546875,0.014404296875,-0.98297119140625,-0.1699371337890625
1773251346371000300,0.846000244140625,-0.01385498046875,-1.0263519287109375,-0.148040771484375
1773251346381037600,0.85603759765625,-0.0163116455078125,-1.1141815185546875,-0.0860595703125
1773251346391073500,0.866073486328125,-0.005157470703125,-1.109375,-0.094879150390625
1773251346401109500,0.876109619140625,0.014404296875,-1.0352325439453125,-0.1687774658203125
1773251346411146500,0.886146484375,0.00311279296875,-0.9889373779296875,-0.171539306640625
1773251346421182500,0.896182373046875,-0.0692596435546875,-0.930938720703125,-0.1378936767578125
1773251346431218400,0.906218505859375,-0.141571044921875,-0.8902435302734375,-0.1667327880859375
1773251346441254400,0.91625439453125,-0.1768798828125,-0.8223876953125,-0.18695068359375
1773251346451291400,0.92629150390625,-0.22772216796875,-0.868316650390625,-0.1138458251953125
1773251346461327400,0.936327392578125,-0.2032928466796875,-0.92041015625,-0.0785064697265625
1773251346471363300,0.94636328125,-0.000213623046875,-1.0181427001953125,0.009002685546875
1773251346481400600,0.956400634765625,0.2332916259765625,-1.1352691650390625,0.0175018310546875
1773251346491436500,0.9664365234375,0.25799560546875,-1.14068603515625,-0.07025146484375
1773251346501472500,0.976472412109375,0.217620849609375,-1.225738525390625,-0.0565948486328125
1773251346511509500,0.986509521484375,0.1515655517578125,-1.2813262939453125,-0.016998291015625
1773251346521545500,0.99654541015625,0.09375,-1.2338104248046875,0.0218353271484375
1773251346531581400,1.00658154296875,0.0728607177734375,-1.050384521484375,0.02972412109375
1773251346541618400,1.016618408203125,0.054229736328125,-0.9296417236328125,0.0292205810546875
1773251346551654400,1.026654296875,0.000518798828125,-0.90631103515625,-0.008026123046875
1773251346561690400,1.0366904296875,0.0294189453125,-0.968963623046875,-0.0625762939453125
1773251346571726300,1.046726318359375,0.069000244140625,-1.008026123046875,-0.023193359375
1773251346581763600,1.056763671875,0.0867156982421875,-0.721893310546875,0.04986572265625
1773251346591799600,1.066799560546875,0.057403564453125,-0.490081787109375,0.2027130126953125
1773251346601835500,1.07683544921875,-0.021728515625,-1.0093231201171875,0.1185760498046875
1773251346611872500,1.08687255859375,-0.0235748291015625,-1.2534637451171875,0.0314788818359375
1773251346621908500,1.096908447265625,0.0722808837890625,-1.1132659912109375,0.0622406005859375
1773251346631944400,1.1069443359375,0.0984649658203125,-1.0407867431640625,0.049591064453125
1773251346641981400,1.1169814453125,0.067962646484375,-1.1582794189453125,-0.023590087890625
1773251346652017400,1.127017333984375,0.0508270263671875,-1.0580902099609375,-0.0543975830078125
1773251346662053400,1.137053466796875,0.0577545166015625,-0.967010498046875,-0.014129638671875
1773251346672089300,1.14708935546875,0.0135650634765625,-1.1551513671875,-0.131927490234375
1773251346682126300,1.157126220703125,-0.0069122314453125,-1.4330291748046875,-0.3265380859375
1773251346692162300,1.167162353515625,0.093994140625,-1.399932861328125,-0.26141357421875
1773251346702198500,1.177198486328125,0.1569366455078125,-1.2312774658203125,-0.154327392578125
1773251346712235500,1.187235595703125,0.094573974609375,-1.0347137451171875,-0.164825439453125
1773251346722271500,1.197271484375,0.0076904296875,-0.97210693359375,-0.12445068359375
1773251346732307500,1.207307373046875,-0.0240478515625,-0.9754638671875,-0.1229400634765625
1773251346742344400,1.217344482421875,-0.036590576171875,-0.9709014892578125,-0.088836669921875
1773251346752380400,1.22738037109375,-0.057220458984375,-0.954742431640625,-0.0572967529296875
1773251346762416400,1.23741650390625,-0.069305419921875,-0.93206787109375,-0.009368896484375
1773251346772453400,1.247453369140625,-0.0682220458984375,-0.9181976318359375,-0.0497589111328125
1773251346782489300,1.2574892578125,-0.017913818359375,-0.8681793212890625,-0.0589599609375
1773251346792525300,1.267525390625,0.0045623779296875,-0.892974853515625,-0.0534515380859375
1773251346802561300,1.277561279296875,0.0117645263671875,-0.9890899658203125,-0.1000213623046875
1773251346812598500,1.2875986328125,-0.00933837890625,-1.0426483154296875,-0.1423492431640625
1773251346822634500,1.297634521484375,-0.0188751220703125,-1.0250244140625,-0.0882415771484375
1773251346832670500,1.30767041015625,0.0053253173828125,-0.9686126708984375,-0.04345703125
1773251346842707500,1.31770751953125,0.0256805419921875,-0.970672607421875,-0.06317138671875
1773251346852743400,1.327743408203125,0.030120849609375,-0.9904632568359375,-0.0684356689453125
1773251346862779400,1.337779296875,0.024383544921875,-1.0325927734375,-0.0558929443359375
1773251346872816400,1.34781640625,0.0430145263671875,-1.0826568603515625,-0.0211639404296875
1773251346882852400,1.357852294921875,0.05889892578125,-1.0950927734375,-0.015655517578125
1773251346892888300,1.367888427734375,0.0767822265625,-1.09771728515625,-0.0462799072265625
1773251346902924300,1.37792431640625,0.085418701171875,-1.076171875,-0.0445556640625
1773251346912961500,1.38796142578125,0.0785675048828125,-1.0165252685546875,-0.0330352783203125
1773251346922997500,1.39799755859375,0.06805419921875,-0.9313201904296875,-0.021636962890625
1773251346933033500,1.408033447265625,0.0509490966796875,-0.8245086669921875,-0.025238037109375
1773251346943070500,1.418070556640625,-0.02294921875,-0.8857421875,-0.04937744140625
1773251346953106400,1.4281064453125,-0.0257415771484375,-0.9836578369140625,-0.079376220703125
1773251346963142400,1.438142333984375,0.027801513671875,-1.0526580810546875,-0.062347412109375
1773251346973179400,1.448179443359375,0.0430450439453125,-1.0970001220703125,-0.01025390625
1773251346983215400,1.45821533203125,0.036529541015625,-1.1125030517578125,-0.034027099609375
1773251346993251300,1.468251220703125,0.028350830078125,-1.06494140625,-0.072174072265625
1773251347003288600,1.47828857421875,0.0222930908203125,-1.004913330078125,-0.08966064453125
1773251347013324500,1.488324462890625,0.017730712890625,-0.919586181640625,-0.0707855224609375
1773251347023360500,1.498360595703125,0.0055694580078125,-0.8604736328125,-0.0435791015625
1773251347033397500,1.5083974609375,-0.0023345947265625,-0.8805999755859375,-0.0673675537109375
1773251347043433500,1.51843359375,-0.0536956787109375,-0.894287109375,-0.0318756103515625
1773251347053469400,1.528469482421875,-0.043609619140625,-0.9360198974609375,0.002227783203125
1773251347063505400,1.53850537109375,-0.028564453125,-1.024322509765625,0.024932861328125
1773251347073542400,1.54854248046875,-0.0210113525390625,-1.09967041015625,0.0154571533203125
1773251347083578400,1.558578369140625,-0.008087158203125,-1.144805908203125,-0.012420654296875
1773251347093614300,1.5686142578125,-0.00225830078125,-1.1518707275390625,-0.04205322265625
1773251347103651300,1.5786513671875,-0.0115814208984375,-1.115753173828125,-0.0498809814453125
1773251347113687300,1.588687255859375,-0.029632568359375,-1.0363311767578125,-0.04913330078125
1773251347123723500,1.5987236328125,-0.0436553955078125,-1.015228271484375,-0.0320281982421875
1773251347133760500,1.608760498046875,-0.0506134033203125,-1.004913330078125,-0.0081024169921875
1773251347143796500,1.61879638671875,-0.0653076171875,-0.99072265625,-0.001708984375
1773251347153832400,1.62883251953125,-0.0783233642578125,-0.9844970703125,0.0114288330078125
1773251347163868400,1.638868408203125,-0.081939697265625,-0.9852142333984375,0.0275421142578125
1773251347173905400,1.648905517578125,-0.0662078857421875,-1.000396728515625,0.0108642578125
1773251347183941400,1.65894140625,-0.028594970703125,-1.0157318115234375,-0.0194854736328125
1773251347193977300,1.668977294921875,-0.0043487548828125,-1.026580810546875,-0.043426513671875
1773251347204014300,1.679014404296875,-0.0115203857421875,-1.034576416015625,-0.0074462890625
1773251347214050300,1.68905029296875,-0.0043792724609375,-1.04913330078125,-0.0203399658203125
1773251347224086300,1.699086181640625,0.0134124755859375,-1.040985107421875,-0.0522003173828125
1773251347234123500,1.70912353515625,0.0105133056640625,-1.020843505859375,-0.062774658203125
1773251347244159500,1.719159423828125,-0.001800537109375,-1.0028839111328125,-0.0452880859375
1773251347254196000,1.729196044921875,-0.0166473388671875,-1.0031585693359375,-0.0250701904296875
1773251347264232000,1.73923193359375,-0.017333984375,-1.0232391357421875,-0.0564117431640625
1773251347274269000,1.74926904296875,-0.00421142578125,-1.0271453857421875,-0.0689544677734375
1773251347284305000,1.759304931640625,0.01708984375,-1.015594482421875,-0.0360107421875
1773251347294340900,1.7693408203125,0.1102294921875,-1.002410888671875,-0.0184173583984375
1773251347304377900,1.7793779296875,0.435821533203125,-1.0038909912109375,-0.0315093994140625
1773251347314413800,1.789413818359375,0.4675140380859375,-0.997955322265625,-0.016754150390625
1773251347324449800,1.79944970703125,0.1227569580078125,-0.9638519287109375,0.0129852294921875
1773251347334487000,1.809487060546875,-0.0750579833984375,-0.940521240234375,0.044036865234375
1773251347344523000,1.81952294921875,-0.1863250732421875,-0.92901611328125,0.0576934814453125
1773251347354559000,1.82955908203125,-0.242279052734375,-0.9243927001953125,0.02880859375
1773251347364595000,1.839594970703125,-0.2970123291015625,-0.931121826171875,0.00115966796875
1773251347374632000,1.8496318359375,-0.36376953125,-0.94122314453125,-0.0089569091796875
1773251347384668000,1.85966796875,-0.3978271484375,-0.9475250244140625,-0.0326690673828125
1773251347394704000,1.869703857421875,-0.3879241943359375,-0.953399658203125,-0.060302734375
1773251347404740900,1.879740966796875,-0.3089752197265625,-0.974517822265625,-0.07098388671875
1773251347414776800,1.88977685546875,-0.1773681640625,-0.992279052734375,-0.0409698486328125
1773251347424812800,1.899812744140625,-0.055267333984375,-0.991302490234375,-0.0128631591796875
1773251347434850000,1.90985009765625,0.020904541015625,-0.998291015625,-0.01300048828125
1773251347444886000,1.919885986328125,0.0489959716796875,-1.0059814453125,-0.019927978515625
1773251347454922000,1.929921875,0.0155029296875,-1.006805419921875,-0.029754638671875
1773251347464959000,1.939958984375,-0.049713134765625,-1.002471923828125,-0.02471923828125
1773251347474995000,1.949994873046875,-0.1037139892578125,-0.9981231689453125,-0.0164337158203125
1773251347485031000,1.960031005859375,-0.1348724365234375,-0.994049072265625,-0.0144500732421875
1773251347495067000,1.97006689453125,-0.13995361328125,-0.9951934814453125,-0.0116424560546875
1773251347505104000,1.980103759765625,-0.1287384033203125,-0.996795654296875,-0.0097198486328125
1773251347515139800,1.990139892578125,-0.1084747314453125,-0.9984130859375,-0.01123046875
1773251347525175800,2.00017578125,-0.091094970703125,-0.99725341796875,-0.0126190185546875
1773251347535213000,2.010213134765625,-0.08294677734375,-0.9940643310546875,-0.014801025390625
1773251347545249000,2.0202490234375,-0.07965087890625,-0.988616943359375,-0.0155029296875
1773251347555285000,2.030284912109375,-0.075439453125,-0.9853363037109375,-0.01348876953125
1773251347565322000,2.040322021484375,-0.078887939453125,-0.9802093505859375,-0.0105743408203125
1773251347575358000,2.05035791015625,-0.0861358642578125,-0.978302001953125,-0.0110015869140625
1773251347585394000,2.060393798828125,-0.0919647216796875,-0.9781036376953125,-0.0146484375
1773251347595431000,2.070430908203125,-0.092559814453125,-0.9799041748046875,-0.020294189453125
1773251347605467000,2.080466796875,-0.0904693603515625,-0.982574462890625,-0.0216827392578125
1773251347615502800,2.0905029296875,-0.086395263671875,-0.9828033447265625,-0.0204620361328125
1773251347625538800,2.100538818359375,-0.086151123046875,-0.9846343994140625,-0.01922607421875
1773251347635576000,2.110576171875,-0.08514404296875,-0.9876251220703125,-0.0195770263671875
1773251347645612000,2.120612060546875,-0.085357666015625,-0.991607666015625,-0.0197906494140625
1773251347655648000,2.13064794921875,-0.0834808349609375,-0.9937744140625,-0.0245208740234375
1773251347665685000,2.14068505859375,-0.0811614990234375,-0.9955596923828125,-0.0277862548828125
1773251347675721000,2.150720947265625,-0.0802459716796875,-0.9967041015625,-0.029388427734375
1773251347685757000,2.1607568359375,-0.0825958251953125,-0.9977874755859375,-0.030364990234375
1773251347695794000,2.1707939453125,-0.0857086181640625,-1.0009307861328125,-0.0328369140625
1773251347705830000,2.180829833984375,-0.09173583984375,-1.0018463134765625,-0.0372772216796875
1773251347715865900,2.190865966796875,-0.098907470703125,-1.0018310546875,-0.0392913818359375
1773251347725901800,2.20090185546875,-0.100189208984375,-1.0001373291015625,-0.0318603515625
1773251347735938800,2.210938720703125,-0.1014862060546875,-1.000213623046875,-0.0233917236328125
1773251347745974800,2.220974853515625,-0.1001434326171875,-0.9982147216796875,-0.0154266357421875
1773251347756011000,2.231010986328125,-0.0971221923828125,-0.9949493408203125,-0.0114593505859375
1773251347766048000,2.241048095703125,-0.0914154052734375,-0.994354248046875,-0.0108795166015625
1773251347776084000,2.251083984375,-0.08306884765625,-0.995819091796875,-0.0109405517578125
1773251347786120000,2.261119873046875,-0.0780181884765625,-0.993865966796875,-0.016815185546875
1773251347796157000,2.271156982421875,-0.0748443603515625,-0.9926605224609375,-0.0165863037109375
1773251347806193000,2.28119287109375,-0.07373046875,-0.9915008544921875,-0.0165252685546875
1773251347816228900,2.291228759765625,-0.076416015625,-0.9926910400390625,-0.0182952880859375
1773251347826264800,2.301264892578125,-0.078399658203125,-0.9912567138671875,-0.0163116455078125
1773251347836301800,2.3113017578125,-0.080810546875,-0.9912261962890625,-0.014373779296875
1773251347846337800,2.321337890625,-0.082305908203125,-0.991424560546875,-0.014373779296875
1773251347856373800,2.331373779296875,-0.0814208984375,-0.992767333984375,-0.015380859375
1773251347866411000,2.341410888671875,-0.0813751220703125,-0.992584228515625,-0.01312255859375
1773251347876447000,2.351447021484375,-0.0844573974609375,-0.9926910400390625,-0.0093536376953125
1773251347886483000,2.36148291015625,-0.08746337890625,-0.99609375,-0.00738525390625
1773251347896520000,2.37152001953125,-0.0894317626953125,-0.9988555908203125,-0.0062255859375
1773251347906556000,2.381555908203125,-0.0861968994140625,-1.000732421875,-0.0039520263671875
1773251347916591900,2.391591796875,-0.082000732421875,-1.0012359619140625,-0.003204345703125
1773251347926628900,2.40162890625,-0.0801849365234375,-1.001495361328125,-0.0050506591796875
1773251347936664800,2.411664794921875,-0.081878662109375,-1.0016937255859375,-0.0071258544921875
1773251347946700800,2.42170068359375,-0.0856475830078125,-1.0005340576171875,-0.0058441162109375
1773251347956736800,2.43173681640625,-0.0894622802734375,-1.00384521484375,-0.0037689208984375
1773251347966774000,2.44177392578125,-0.0876922607421875,-1.001983642578125,-0.003509521484375
1773251347976810000,2.45181005859375,-0.083892822265625,-0.9969940185546875,-0.0008392333984375
1773251347986846000,2.461845947265625,-0.081329345703125,-0.9935760498046875,-0.00006103515625
1773251347996883000,2.471883056640625,-0.0822296142578125,-0.98858642578125,-0.0043487548828125
1773251348006919000,2.4819189453125,-0.0859375,-0.9835205078125,-0.0050506591796875
1773251348016955000,2.491954833984375,-0.09027099609375,-0.980010986328125,-0.0092010498046875
1773251348026991900,2.501991943359375,-0.092193603515625,-0.9761810302734375,-0.0085601806640625
1773251348037027800,2.51202783203125,-0.0900115966796875,-0.97406005859375,-0.00537109375
1773251348047063800,2.522063720703125,-0.0899200439453125,-0.9748077392578125,-0.0049896240234375
1773251348057099800,2.532099853515625,-0.0869293212890625,-0.975860595703125,-0.00616455078125
1773251348067137000,2.542136962890625,-0.0856475830078125,-0.97802734375,-0.004180908203125
1773251348077173000,2.552173095703125,-0.0883941650390625,-0.9812164306640625,-0.0055389404296875
1773251348087209000,2.562208984375,-0.09246826171875,-0.984466552734375,-0.0061798095703125
1773251348097246000,2.572245849609375,-0.0958099365234375,-0.9871063232421875,-0.005462646484375
1773251348107282000,2.582281982421875,-0.0977020263671875,-0.98834228515625,-0.004180908203125
1773251348117318000,2.59231787109375,-0.0970458984375,-0.9920806884765625,-0.00238037109375
1773251348127355000,2.60235498046875,-0.0956878662109375,-0.99365234375,-0.0032806396484375
1773251348137390800,2.612390869140625,-0.097381591796875,-0.9936370849609375,-0.0005340576171875
1773251348147426800,2.6224267578125,-0.0984344482421875,-0.9984588623046875,0.00030517578125
1773251348157463800,2.6324638671875,-0.1002655029296875,-0.99847412109375,-0.00164794921875
1773251348167499800,2.642499755859375,-0.100128173828125,-0.999176025390625,-0.0018463134765625
1773251348177536000,2.652535888671875,-0.1004486083984375,-1.00091552734375,-0.004669189453125
1773251348187572000,2.662572021484375,-0.1021728515625,-1.00042724609375,-0.0005950927734375
1773251348197609000,2.67260888671875,-0.104827880859375,-1.0000152587890625,-0.00054931640625
1773251348207645000,2.68264501953125,-0.1072998046875,-1.00018310546875,-0.0012359619140625
1773251348217681000,2.692680908203125,-0.10784912109375,-1.0026702880859375,-0.000335693359375
1773251348227718000,2.7027177734375,-0.1062774658203125,-1.0018768310546875,-0.001678466796875
1773251348237753900,2.71275390625,-0.1050262451171875,-0.9992828369140625,-0.0045318603515625
1773251348247789800,2.722789794921875,-0.1057891845703125,-0.9989166259765625,-0.00445556640625
1773251348257827600,2.73282763671875,-0.10205078125,-0.99603271484375,-0.0028533935546875
1773251348267863600,2.742863525390625,-0.103179931640625,-0.99456787109375,-0.00152587890625
1773251348277899500,2.7528994140625,-0.1019439697265625,-0.9922027587890625,-0.0027618408203125
1773251348287935500,2.762935546875,-0.1019287109375,-0.9923095703125,-0.0030059814453125
1773251348297972500,2.772972412109375,-0.099517822265625,-0.990081787109375,-0.0045623779296875
1773251348308008400,2.783008544921875,-0.0982666015625,-0.990264892578125,-0.0060272216796875
1773251348318044400,2.79304443359375,-0.098358154296875,-0.988433837890625,-0.004852294921875
1773251348328081400,2.803081298828125,-0.0984344482421875,-0.990234375,-0.0030975341796875
1773251348338117400,2.813117431640625,-0.0995330810546875,-0.990997314453125,-0.00201416015625
1773251348348153300,2.8231533203125,-0.1025543212890625,-0.989410400390625,-0.003936767578125
1773251348358190600,2.833190673828125,-0.10845947265625,-0.9873504638671875,-0.0091400146484375
1773251348368226600,2.8432265625,-0.11175537109375,-0.9857025146484375,-0.01171875
1773251348378262500,2.853262451171875,-0.1132659912109375,-0.9832916259765625,-0.012420654296875
1773251348388299500,2.863299560546875,-0.11114501953125,-0.9845428466796875,-0.0113983154296875
1773251348398335500,2.87333544921875,-0.107757568359375,-0.9871826171875,-0.0085906982421875
1773251348408371500,2.883371337890625,-0.1052398681640625,-0.990936279296875,-0.00543212890625
1773251348418407400,2.893407470703125,-0.101806640625,-0.9947357177734375,-0.00579833984375
1773251348428444400,2.9034443359375,-0.0992279052734375,-0.9993133544921875,-0.0048980712890625
1773251348438480400,2.91348046875,-0.0988006591796875,-0.998138427734375,-0.0091705322265625
1773251348448516400,2.923516357421875,-0.1003570556640625,-0.9986419677734375,-0.010223388671875
1773251348458553300,2.93355322265625,-0.10211181640625,-0.996307373046875,-0.0121002197265625
1773251348468589600,2.943589599609375,-0.1072235107421875,-0.99169921875,-0.012054443359375
1773251348478625500,2.95362548828125,-0.1165008544921875,-0.9922332763671875,-0.0137176513671875
1773251348488662500,2.96366259765625,-0.1257781982421875,-0.993499755859375,-0.0175933837890625
1773251348498698500,2.973698486328125,-0.1289825439453125,-0.9936981201171875,-0.0158233642578125
1773251348508734500,2.983734375,-0.1264801025390625,-0.9942474365234375,-0.0103759765625
1773251348518771500,2.993771484375,-0.117340087890625,-0.993743896484375,-0.0071868896484375
1773251348528807400,3.003807373046875,-0.1097259521484375,-0.9911041259765625,-0.0080718994140625
1773251348538843400,3.013843505859375,-0.106201171875,-0.99078369140625,-0.0113677978515625
1773251348548879400,3.02387939453125,-0.10693359375,-0.98974609375,-0.01318359375
1773251348558916400,3.033916259765625,-0.10772705078125,-0.9896697998046875,-0.0119476318359375
1773251348568952300,3.043952392578125,-0.107452392578125,-0.990875244140625,-0.0120086669921875
1773251348578988500,3.053988525390625,-0.10614013671875,-0.9934234619140625,-0.0112457275390625
1773251348589025500,3.064025634765625,-0.10400390625,-0.9927978515625,-0.0082855224609375
1773251348599061500,3.0740615234375,-0.0997314453125,-0.9920654296875,-0.0020599365234375
1773251348609097500,3.084097412109375,-0.0985870361328125,-0.9940643310546875,0.0017852783203125
1773251348619134500,3.094134521484375,-0.1021728515625,-0.9958648681640625,-0.001617431640625
1773251348629170400,3.10417041015625,-0.1098785400390625,-0.99432373046875,-0.0053863525390625
1773251348639206400,3.114206298828125,-0.115570068359375,-0.9920501708984375,-0.002410888671875
1773251348649242400,3.124242431640625,-0.121551513671875,-0.989166259765625,0.00079345703125
1773251348659279400,3.134279296875,-0.1259613037109375,-0.9899749755859375,-0.0010833740234375
1773251348669315300,3.1443154296875,-0.12396240234375,-0.9888153076171875,-0.005157470703125
1773251348679351300,3.154351318359375,-0.119384765625,-0.9909515380859375,-0.007720947265625
1773251348689388500,3.164388427734375,-0.1131439208984375,-0.991241455078125,-0.0063934326171875
1773251348699424500,3.174424560546875,-0.112457275390625,-0.99188232421875,-0.009613037109375
1773251348709460500,3.18446044921875,-0.1117706298828125,-0.991119384765625,-0.01141357421875
1773251348719497500,3.19449755859375,-0.111572265625,-0.9912872314453125,-0.0096435546875
1773251348729533400,3.204533447265625,-0.1118621826171875,-0.9894256591796875,-0.0116119384765625
1773251348739569400,3.2145693359375,-0.11334228515625,-0.9890899658203125,-0.012939453125
1773251348749605400,3.22460546875,-0.11590576171875,-0.9891357421875,-0.01416015625
1773251348759642400,3.234642333984375,-0.1200408935546875,-0.988372802734375,-0.01617431640625
1773251348769678300,3.24467822265625,-0.125152587890625,-0.988128662109375,-0.0175323486328125
1773251348779714300,3.25471435546875,-0.1272430419921875,-0.9893798828125,-0.0140838623046875
1773251348789751600,3.26475146484375,-0.12677001953125,-0.9901123046875,-0.009552001953125
1773251348799787500,3.27478759765625,-0.12109375,-0.990570068359375,-0.0128326416015625
1773251348809823500,3.284823486328125,-0.1170806884765625,-0.99090576171875,-0.017333984375
1773251348819860500,3.294860595703125,-0.117095947265625,-0.993194580078125,-0.0171051025390625
1773251348829896400,3.304896484375,-0.1189117431640625,-0.9927215576171875,-0.0160675048828125
1773251348839932400,3.314932373046875,-0.12255859375,-0.99163818359375,-0.0124359130859375
1773251348849968400,3.324968505859375,-0.1237640380859375,-0.992919921875,-0.0117950439453125
1773251348860005400,3.33500537109375,-0.123992919921875,-0.9921112060546875,-0.012939453125
1773251348870041300,3.345041259765625,-0.126007080078125,-0.993438720703125,-0.01104736328125
1773251348880077300,3.355077392578125,-0.124725341796875,-0.994110107421875,-0.008941650390625
1773251348890114600,3.365114501953125,-0.1234283447265625,-0.9949798583984375,-0.00750732421875
1773251348900150500,3.375150634765625,-0.12554931640625,-0.99285888671875,-0.0062713623046875
1773251348910186500,3.3851865234375,-0.1252593994140625,-0.9918060302734375,-0.0057830810546875
1773251348920223500,3.395223388671875,-0.1253814697265625,-0.9899139404296875,-0.0078887939453125
1773251348930259500,3.405259521484375,-0.1260528564453125,-0.988677978515625,-0.010955810546875
1773251348940295400,3.41529541015625,-0.12615966796875,-0.9888458251953125,-0.0104217529296875
1773251348950332400,3.42533251953125,-0.1252288818359375,-0.98687744140625,-0.007415771484375
1773251348960368400,3.435368408203125,-0.1247711181640625,-0.988372802734375,-0.00946044921875
1773251348970404400,3.445404296875,-0.1247711181640625,-0.9890289306640625,-0.0126495361328125
1773251348980440300,3.4554404296875,-0.12628173828125,-0.989959716796875,-0.0158233642578125
1773251348990477300,3.465477294921875,-0.1260528564453125,-0.98919677734375,-0.01373291015625
1773251349000513300,3.47551318359375,-0.1269989013671875,-0.9909210205078125,-0.007049560546875
1773251349010549500,3.485549560546875,-0.1270599365234375,-0.9904632568359375,-0.003448486328125
1773251349020586500,3.49558642578125,-0.1251678466796875,-0.9900054931640625,-0.0039520263671875
1773251349030622500,3.50562255859375,-0.125701904296875,-0.9914398193359375,-0.0064239501953125
1773251349040658400,3.515658447265625,-0.1270904541015625,-0.9920806884765625,-0.0050048828125
1773251349050694400,3.5256943359375,-0.1248016357421875,-0.991607666015625,-0.0049591064453125
1773251349060731400,3.5357314453125,-0.1229248046875,-0.9904937744140625,0.0025177001953125
1773251349070767400,3.545767333984375,-0.1230926513671875,-0.9913482666015625,-0.0087432861328125
1773251349080803300,3.55580322265625,-0.1231231689453125,-0.994293212890625,-0.021514892578125
1773251349090840300,3.56584033203125,-0.126495361328125,-0.9951171875,-0.0183258056640625
1773251349100876300,3.575876220703125,-0.129547119140625,-0.996307373046875,-0.0072784423828125
1773251349110912300,3.585912353515625,-0.1325531005859375,-0.993896484375,-0.0015106201171875
1773251349120949500,3.595949462890625,-0.1324310302734375,-0.9924468994140625,-0.0037689208984375
1773251349130985500,3.6059853515625,-0.127655029296875,-0.9919281005859375,-0.006927490234375
1773251349141021400,3.616021484375,-0.1238861083984375,-0.9906005859375,-0.00628662109375
1773251349151058400,3.626058349609375,-0.1231536865234375,-0.9883270263671875,-0.003448486328125
1773251349161094400,3.636094482421875,-0.1220855712890625,-0.98681640625,-0.0016021728515625
1773251349171130400,3.64613037109375,-0.1240234375,-0.9866943359375,-0.004547119140625
1773251349181166300,3.656166259765625,-0.124847412109375,-0.98724365234375,-0.00164794921875
1773251349191203300,3.666203369140625,-0.1248931884765625,-0.98541259765625,0.0026092529296875
1773251349201239300,3.6762392578125,-0.12298583984375,-0.9848175048828125,0.0023956298828125
1773251349211275300,3.686275146484375,-0.121826171875,-0.9848785400390625,-0.001800537109375
1773251349221312500,3.6963125,-0.1185455322265625,-0.9835968017578125,-0.0010528564453125
1773251349231348500,3.706348388671875,-0.12152099609375,-0.982940673828125,0.0037841796875
1773251349241384400,3.716384521484375,-0.1248016357421875,-0.9859466552734375,-0.01531982421875
1773251349251420700,3.726420654296875,-0.1290435791015625,-0.983917236328125,-0.0151214599609375
1773251349261456600,3.73645654296875,-0.1308746337890625,-0.9809722900390625,-0.0030517578125
1773251349271492600,3.74649267578125,-0.12835693359375,-0.983184814453125,0.0038604736328125
1773251349281528800,3.75652880859375,-0.126373291015625,-0.986114501953125,-0.00164794921875
1773251349291565600,3.766565673828125,-0.122528076171875,-0.9923858642578125,-0.00347900390625
1773251349301601500,3.7766015625,-0.1155548095703125,-0.9970245361328125,0.00042724609375
1773251349311637800,3.7866376953125,-0.1136016845703125,-0.999847412109375,0.0028839111328125
1773251349321674500,3.796674560546875,-0.11456298828125,-0.9997711181640625,0.0027008056640625
1773251349331710500,3.80671044921875,-0.121307373046875,-1.00250244140625,0.0032806396484375
1773251349341746700,3.81674658203125,-0.12469482421875,-0.998260498046875,0.0050811767578125
1773251349351783700,3.82678369140625,-0.127960205078125,-0.993621826171875,0.0089874267578125
1773251349361819600,3.836819580078125,-0.1342620849609375,-0.989776611328125,0.0071258544921875
1773251349371855600,3.846855712890625,-0.14404296875,-0.98712158203125,0.003631591796875
1773251349381891800,3.856891845703125,-0.1484375,-0.9894866943359375,-0.00274658203125
1773251349391928600,3.866928466796875,-0.143768310546875,-0.98876953125,-0.005340576171875
1773251349401964500,3.876964599609375,-0.1283721923828125,-0.9874420166015625,-0.004638671875
1773251349412000800,3.887000732421875,-0.1150360107421875,-0.9883880615234375,-0.00213623046875
1773251349422037500,3.89703759765625,-0.1082305908203125,-0.987213134765625,0.000823974609375
1773251349432073500,3.907073486328125,-0.10955810546875,-0.9898223876953125,0.0005035400390625
1773251349442109700,3.917109619140625,-0.116607666015625,-0.9895782470703125,-0.0020599365234375
1773251349452146700,3.927146728515625,-0.1243743896484375,-0.9889984130859375,-0.0033416748046875
1773251349462182700,3.9371826171875,-0.1304931640625,-0.987823486328125,-0.0052337646484375
1773251349472218600,3.947218505859375,-0.134613037109375,-0.9867095947265625,-0.00457763671875
1773251349482254800,3.9572548828125,-0.134002685546875,-0.9858245849609375,-0.0019073486328125
1773251349492291600,3.96729150390625,-0.129791259765625,-0.9853973388671875,-0.0031280517578125
1773251349502327800,3.977327880859375,-0.1229095458984375,-0.983642578125,-0.0045318603515625
1773251349512363800,3.98736376953125,-0.1169891357421875,-0.984893798828125,-0.003631591796875
1773251349522400500,3.997400390625,-0.1137542724609375,-0.9858551025390625,-0.0027313232421875
1773251349532436700,4.007436767578125,-0.1146087646484375,-0.9843292236328125,-0.002227783203125
1773251349542472700,4.01747265625,-0.1239471435546875,-0.9832000732421875,0.0003662109375
1773251349552509700,4.027509765625,-0.133697509765625,-0.984100341796875,-0.0008392333984375
1773251349562545700,4.037545654296875,-0.136810302734375,-0.9842376708984375,-0.0014801025390625
1773251349572582000,4.047581787109375,-0.1367034912109375,-0.9840850830078125,-0.005767822265625
1773251349582617900,4.057617919921875,-0.133758544921875,-0.984039306640625,-0.0047607421875
1773251349592654600,4.067654541015625,-0.133544921875,-0.985260009765625,-0.004638671875
1773251349602690800,4.07769091796875,-0.130340576171875,-0.9873809814453125,-0.0074920654296875
1773251349612726800,4.087726806640625,-0.1301422119140625,-0.98931884765625,-0.0129547119140625
1773251349622763500,4.097763427734375,-0.133026123046875,-0.993560791015625,-0.011505126953125
1773251349632799700,4.1077998046875,-0.133941650390625,-0.9932861328125,-0.00921630859375
1773251349642835700,4.117835693359375,-0.133697509765625,-0.994537353515625,-0.00750732421875
1773251349652872700,4.127872802734375,-0.13616943359375,-0.9931793212890625,-0.0098419189453125
1773251349662908700,4.13790869140625,-0.1385040283203125,-0.9932403564453125,-0.01080322265625
1773251349672945000,4.14794482421875,-0.1384429931640625,-0.9918975830078125,-0.0134429931640625
1773251349682980900,4.15798095703125,-0.1384735107421875,-0.9917755126953125,-0.017059326171875
1773251349693017600,4.168017578125,-0.1367340087890625,-0.9908599853515625,-0.019134521484375
1773251349703053800,4.1780537109375,-0.1328887939453125,-0.9903106689453125,-0.0188751220703125
1773251349713089800,4.18808984375,-0.1304779052734375,-0.99072265625,-0.016998291015625
1773251349723126500,4.19812646484375,-0.131805419921875,-0.9912109375,-0.0189971923828125
1773251349733162800,4.208162841796875,-0.1325225830078125,-0.9919891357421875,-0.022216796875
1773251349743198700,4.21819873046875,-0.132171630859375,-0.9914398193359375,-0.0198974609375
1773251349753235500,4.2282353515625,-0.133453369140625,-0.9884796142578125,-0.0204315185546875
1773251349763271700,4.238271728515625,-0.1396942138671875,-0.9880828857421875,-0.02294921875
1773251349773308000,4.248307861328125,-0.1418609619140625,-0.9884490966796875,-0.02374267578125
1773251349783343900,4.25834375,-0.14190673828125,-0.9864501953125,-0.02838134765625
1773251349793380900,4.268380859375,-0.1370086669921875,-0.986724853515625,-0.0289154052734375
1773251349803416800,4.278416748046875,-0.132568359375,-0.9908447265625,-0.0315704345703125
1773251349813452800,4.288452880859375,-0.128326416015625,-0.98974609375,-0.033935546875
1773251349823489800,4.29848974609375,-0.1234130859375,-0.989532470703125,-0.0342559814453125
1773251349833525800,4.30852587890625,-0.123443603515625,-0.988311767578125,-0.0336151123046875
1773251349843561700,4.318561767578125,-0.1219940185546875,-0.987823486328125,-0.0339508056640625
1773251349853598700,4.3285986328125,-0.1215667724609375,-0.9891204833984375,-0.032135009765625
1773251349863634700,4.338634765625,-0.1208038330078125,-0.98919677734375,-0.0308990478515625
1773251349873670700,4.348670654296875,-0.1221771240234375,-0.989044189453125,-0.031005859375
1773251349883706600,4.35870654296875,-0.12451171875,-0.989715576171875,-0.0319061279296875
1773251349893743900,4.368743896484375,-0.12799072265625,-0.9876556396484375,-0.0350189208984375
1773251349903779800,4.37877978515625,-0.131683349609375,-0.987030029296875,-0.0327606201171875
1773251349913815800,4.38881591796875,-0.1318206787109375,-0.9860992431640625,-0.0326995849609375
1773251349923852800,4.398852783203125,-0.1309051513671875,-0.9852447509765625,-0.02947998046875
1773251349933888800,4.408888671875,-0.1273956298828125,-0.9827117919921875,-0.0266571044921875
1773251349943924700,4.4189248046875,-0.1252899169921875,-0.981903076171875,-0.02374267578125
1773251349953961700,4.428961669921875,-0.1254425048828125,-0.9824981689453125,-0.0220184326171875
1773251349963997700,4.438997802734375,-0.12603759765625,-0.9808502197265625,-0.02117919921875
1773251349974033700,4.44903369140625,-0.1270751953125,-0.98248291015625,-0.021453857421875
1773251349984069600,4.459069580078125,-0.128936767578125,-0.981414794921875,-0.0231475830078125
1773251349994107000,4.46910693359375,-0.131072998046875,-0.9825592041015625,-0.0246429443359375
1773251350004142800,4.479142822265625,-0.1320953369140625,-0.9845428466796875,-0.0229644775390625
1773251350014178800,4.4891787109375,-0.1317138671875,-0.9842376708984375,-0.021575927734375
1773251350024215800,4.4992158203125,-0.1303253173828125,-0.98651123046875,-0.0191192626953125
1773251350034251800,4.509251708984375,-0.1297454833984375,-0.985076904296875,-0.02020263671875
1773251350044287700,4.519287841796875,-0.1320343017578125,-0.9874114990234375,-0.019683837890625
1773251350054324700,4.52932470703125,-0.1381072998046875,-0.9895172119140625,-0.0186920166015625
1773251350064360700,4.539360595703125,-0.1470947265625,-0.990020751953125,-0.0171051025390625
1773251350074396700,4.549396728515625,-0.1546478271484375,-0.98931884765625,-0.0205230712890625
1773251350084432600,4.5594326171875,-0.1548919677734375,-0.9878082275390625,-0.0249176025390625
1773251350094470000,4.569469970703125,-0.1526641845703125,-0.9893798828125,-0.0259552001953125
1773251350104505900,4.579505859375,-0.1483154296875,-0.991180419921875,-0.0236053466796875
1773251350114541800,4.589541748046875,-0.1448211669921875,-0.991912841796875,-0.0235748291015625
1773251350124578800,4.599578857421875,-0.14324951171875,-0.99066162109375,-0.02105712890625
1773251350134614800,4.60961474609375,-0.14495849609375,-0.988189697265625,-0.0201416015625
1773251350144650800,4.619650634765625,-0.14447021484375,-0.9860076904296875,-0.022186279296875
1773251350154687700,4.629687744140625,-0.146209716796875,-0.9850921630859375,-0.0238494873046875
1773251350164723700,4.6397236328125,-0.1513824462890625,-0.981109619140625,-0.0254058837890625
1773251350174759700,4.649759765625,-0.153839111328125,-0.977569580078125,-0.0241851806640625
1773251350184795600,4.659795654296875,-0.155517578125,-0.9771575927734375,-0.0204010009765625
1773251350194833000,4.6698330078125,-0.160247802734375,-0.97882080078125,-0.01971435546875
1773251350204868900,4.679868896484375,-0.1646575927734375,-0.983551025390625,-0.021392822265625
1773251350214904800,4.68990478515625,-0.1686859130859375,-0.9851531982421875,-0.02154541015625
1773251350224941800,4.69994189453125,-0.16595458984375,-0.987091064453125,-0.0210113525390625
1773251350234977800,4.709977783203125,-0.1620635986328125,-0.9895172119140625,-0.0168914794921875
1773251350245013800,4.720013671875,-0.1578826904296875,-0.990264892578125,-0.016876220703125
1773251350255050800,4.73005078125,-0.1545257568359375,-0.991790771484375,-0.018341064453125
1773251350265086700,4.740086669921875,-0.15557861328125,-0.9923248291015625,-0.0175933837890625
1773251350275122700,4.750122802734375,-0.158905029296875,-0.9939727783203125,-0.0208892822265625
1773251350285158700,4.76015869140625,-0.1636505126953125,-0.994842529296875,-0.0225830078125
1773251350295195600,4.770195556640625,-0.164337158203125,-0.99322509765625,-0.02398681640625
1773251350305231600,4.780231689453125,-0.1651763916015625,-0.994110107421875,-0.0213623046875
1773251350315267600,4.790267578125,-0.1642913818359375,-0.992706298828125,-0.01776123046875
1773251350325304600,4.8003046875,-0.160980224609375,-0.992156982421875,-0.0167999267578125
1773251350335340500,4.810340576171875,-0.157440185546875,-0.992156982421875,-0.0152130126953125
1773251350345376500,4.82037646484375,-0.1568145751953125,-0.988616943359375,-0.0127410888671875
1773251350355412500,4.83041259765625,-0.1591339111328125,-0.9844512939453125,-0.0121307373046875
1773251350365449700,4.84044970703125,-0.1619720458984375,-0.9839935302734375,-0.010406494140625
1773251350375485700,4.850485595703125,-0.16571044921875,-0.9823455810546875,-0.0086822509765625
1773251350385521700,4.860521728515625,-0.1700897216796875,-0.9787750244140625,-0.01031494140625
1773251350395558700,4.87055859375,-0.17047119140625,-0.978424072265625,-0.01373291015625
1773251350405594600,4.8805947265625,-0.166717529296875,-0.9770050048828125,-0.015167236328125
1773251350415630600,4.890630615234375,-0.162384033203125,-0.97625732421875,-0.014312744140625
1773251350425667600,4.90066748046875,-0.1574249267578125,-0.976806640625,-0.0131072998046875
1773251350435703600,4.91070361328125,-0.156341552734375,-0.9772491455078125,-0.0160980224609375
1773251350445739500,4.920739501953125,-0.1582183837890625,-0.9811859130859375,-0.01751708984375
1773251350455775500,4.930775390625,-0.15557861328125,-0.98553466796875,-0.0160675048828125
1773251350465812500,4.9408125,-0.1544647216796875,-0.986480712890625,-0.014678955078125
1773251350475848700,4.9508486328125,-0.1526641845703125,-0.9904937744140625,-0.012847900390625
1773251350485884700,4.960884765625,-0.1504669189453125,-0.9902801513671875,-0.0126953125
1773251350495921700,4.970921630859375,-0.1494140625,-0.99285888671875,-0.0117645263671875
1773251350505957600,4.98095751953125,-0.1501007080078125,-0.994476318359375,-0.009857177734375
1773251350515993600,4.99099365234375,-0.1499786376953125,-0.99639892578125,-0.0092010498046875
1773251350526030600,5.001030517578125,-0.1482696533203125,-0.999786376953125,-0.010040283203125
1773251350536066600,5.011066650390625,-0.1484527587890625,-0.999481201171875,-0.0116119384765625
1773251350546102500,5.0211025390625,-0.1514129638671875,-0.9982452392578125,-0.013580322265625
1773251350556138500,5.031138427734375,-0.1540985107421875,-0.99737548828125,-0.0161895751953125
1773251350566175500,5.041175537109375,-0.1539154052734375,-0.9941558837890625,-0.01416015625
1773251350576211500,5.05121142578125,-0.1499481201171875,-0.9932861328125,-0.015228271484375
1773251350586247400,5.061247314453125,-0.1418609619140625,-0.9941558837890625,-0.0118255615234375
1773251350596284700,5.07128466796875,-0.134063720703125,-0.9919281005859375,-0.0073699951171875
1773251350606320600,5.081320556640625,-0.128448486328125,-0.9910736083984375,-0.001678466796875
1773251350616356600,5.091356689453125,-0.127655029296875,-0.988433837890625,0.0009613037109375
1773251350626393600,5.1013935546875,-0.127227783203125,-0.98553466796875,0.0006103515625
1773251350636429600,5.1114296875,-0.1285247802734375,-0.9822540283203125,-0.0009918212890625
1773251350646465500,5.121465576171875,-0.13031005859375,-0.9791717529296875,0.0017852783203125
1773251350656501500,5.13150146484375,-0.1318511962890625,-0.98016357421875,0.005584716796875
1773251350666538500,5.14153857421875,-0.1329193115234375,-0.9784088134765625,0.0077362060546875
1773251350676574500,5.151574462890625,-0.1328582763671875,-0.9769134521484375,0.0072784423828125
1773251350686610400,5.1616103515625,-0.13214111328125,-0.977874755859375,0.0062408447265625
1773251350696647700,5.171647705078125,-0.131439208984375,-0.9773406982421875,0.0068359375
1773251350706683600,5.18168359375,-0.13079833984375,-0.977508544921875,0.0065155029296875
1773251350716719600,5.1917197265625,-0.12890625,-0.977783203125,0.002655029296875
1773251350726756600,5.201756591796875,-0.1294708251953125,-0.97686767578125,0.0025634765625
1773251350736792600,5.21179248046875,-0.133453369140625,-0.9779815673828125,0.005584716796875
1773251350746828500,5.22182861328125,-0.13946533203125,-0.9787445068359375,0.00341796875
1773251350756864500,5.231864501953125,-0.1443328857421875,-0.9844970703125,-0.00250244140625
1773251350766901500,5.241901611328125,-0.1454010009765625,-0.988983154296875,-0.002655029296875
1773251350776937500,5.2519375,-0.1447296142578125,-0.99102783203125,-0.0018463134765625
1773251350786973400,5.261973388671875,-0.142578125,-0.9916534423828125,-0.0034942626953125
1773251350797010700,5.2720107421875,-0.1414642333984375,-0.9920501708984375,-0.00634765625
1773251350807046700,5.282046630859375,-0.14208984375,-0.9926910400390625,-0.007843017578125
1773251350817082600,5.29208251953125,-0.1420135498046875,-0.993011474609375,-0.0066070556640625
1773251350827119600,5.30211962890625,-0.1394805908203125,-0.9926910400390625,-0.0089569091796875
1773251350837155600,5.312155517578125,-0.1427001953125,-0.9914703369140625,-0.0083465576171875
1773251350847191600,5.322191650390625,-0.145172119140625,-0.992523193359375,-0.0065460205078125
1773251350857227500,5.3322275390625,-0.144805908203125,-0.9938201904296875,-0.007965087890625
1773251350867264500,5.342264404296875,-0.1443023681640625,-0.9934844970703125,-0.00750732421875
1773251350877300500,5.352300537109375,-0.1399993896484375,-0.990081787109375,-0.00726318359375
1773251350887336400,5.36233642578125,-0.1400909423828125,-0.98736572265625,-0.0084228515625
1773251350897373700,5.372373779296875,-0.1412353515625,-0.9878692626953125,-0.0110931396484375
1773251350907409700,5.38240966796875,-0.142822265625,-0.987548828125,-0.01300048828125
1773251350917445600,5.392445556640625,-0.1439208984375,-0.986663818359375,-0.0090179443359375
1773251350927482600,5.402482666015625,-0.14453125,-0.9849700927734375,-0.0098876953125
1773251350937518600,5.4125185546875,-0.14178466796875,-0.9830780029296875,-0.0089874267578125
1773251350947554600,5.422554443359375,-0.136993408203125,-0.9836578369140625,-0.0072479248046875
1773251350957590500,5.432590576171875,-0.1316375732421875,-0.985992431640625,-0.007354736328125
1773251350967627500,5.44262744140625,-0.1314849853515625,-0.9901275634765625,-0.0080718994140625
1773251350977663500,5.45266357421875,-0.1351776123046875,-0.9910736083984375,-0.0133209228515625
1773251350987699500,5.462699462890625,-0.1368408203125,-0.9913787841796875,-0.017578125
1773251350997736400,5.472736328125,-0.13629150390625,-0.9920806884765625,-0.0136566162109375
1773251351007772400,5.4827724609375,-0.13543701171875,-0.9914093017578125,-0.0127105712890625
1773251351017808600,5.49280859375,-0.1369781494140625,-0.98968505859375,-0.015045166015625
1773251351027845600,5.502845703125,-0.13720703125,-0.9837188720703125,-0.016387939453125
1773251351037881600,5.512881591796875,-0.137664794921875,-0.9791412353515625,-0.0150146484375
1773251351047917600,5.52291748046875,-0.142608642578125,-0.97882080078125,-0.0160980224609375
1773251351057953500,5.53295361328125,-0.1502838134765625,-0.97857666015625,-0.0174713134765625
1773251351067990500,5.542990478515625,-0.156707763671875,-0.980682373046875,-0.018096923828125
1773251351078026500,5.553026611328125,-0.1596527099609375,-0.98455810546875,-0.015167236328125
1773251351088062500,5.5630625,-0.1537628173828125,-0.9855499267578125,-0.012115478515625
1773251351098099500,5.573099365234375,-0.14453125,-0.9880218505859375,-0.0122528076171875
1773251351108135400,5.583135498046875,-0.1375732421875,-0.9883880615234375,-0.0136260986328125
1773251351118171400,5.59317138671875,-0.1373748779296875,-0.988616943359375,-0.0141143798828125
1773251351128208600,5.603208740234375,-0.143310546875,-0.986846923828125,-0.0144805908203125
1773251351138244600,5.61324462890625,-0.1456298828125,-0.986358642578125,-0.01690673828125
1773251351148280600,5.623280517578125,-0.1465606689453125,-0.9868927001953125,-0.017913818359375
1773251351158316500,5.633316650390625,-0.1456146240234375,-0.98626708984375,-0.0155181884765625
1773251351168353500,5.643353515625,-0.1429901123046875,-0.9865570068359375,-0.0134735107421875
1773251351178389500,5.653389404296875,-0.1405792236328125,-0.98822021484375,-0.0119781494140625
1773251351188425500,5.663425537109375,-0.140869140625,-0.988800048828125,-0.01318359375
1773251351198462500,5.67346240234375,-0.1417999267578125,-0.98944091796875,-0.01287841796875
1773251351208498400,5.68349853515625,-0.1446990966796875,-0.9904327392578125,-0.01507568359375
1773251351218534400,5.693534423828125,-0.1460418701171875,-0.9908905029296875,-0.0209197998046875
1773251351228571600,5.703571533203125,-0.1465606689453125,-0.9920806884765625,-0.02117919921875
1773251351238607600,5.713607666015625,-0.1476593017578125,-0.9899444580078125,-0.0208282470703125
1773251351248643600,5.7236435546875,-0.1479034423828125,-0.99041748046875,-0.0226593017578125
1773251351258680000,5.73368017578125,-0.1461029052734375,-0.990203857421875,-0.0190277099609375
1773251351268717000,5.743717041015625,-0.1429443359375,-0.990997314453125,-0.012908935546875
1773251351278753000,5.7537529296875,-0.1407318115234375,-0.991729736328125,-0.0149078369140625
1773251351288789000,5.7637890625,-0.1403045654296875,-0.990020751953125,-0.014434814453125
1773251351298826200,5.773826171875,-0.1379852294921875,-0.988067626953125,-0.0117645263671875
1773251351308862200,5.7838623046875,-0.13751220703125,-0.98773193359375,-0.0087738037109375
1773251351318898200,5.793898193359375,-0.1397705078125,-0.986724853515625,-0.0107421875
1773251351328934100,5.80393408203125,-0.141326904296875,-0.9867706298828125,-0.013275146484375
1773251351338971100,5.81397119140625,-0.14105224609375,-0.9871673583984375,-0.0130767822265625
1773251351349007000,5.824007080078125,-0.1410980224609375,-0.9861907958984375,-0.012420654296875
1773251351359043000,5.83404296875,-0.140625,-0.987518310546875,-0.0112762451171875
1773251351369080000,5.844080078125,-0.1367645263671875,-0.9882049560546875,-0.0097808837890625
1773251351379116000,5.854115966796875,-0.1378326416015625,-0.9875640869140625,-0.0111846923828125
1773251351389152000,5.864152099609375,-0.1398162841796875,-0.989471435546875,-0.0130462646484375
1773251351399189200,5.874189208984375,-0.140228271484375,-0.9871826171875,-0.0155792236328125
1773251351409225200,5.88422509765625,-0.1423492431640625,-0.9875030517578125,-0.014404296875
1773251351419261200,5.89426123046875,-0.1461181640625,-0.9865875244140625,-0.01483154296875
1773251351429298200,5.904298095703125,-0.1448516845703125,-0.9852447509765625,-0.0182037353515625
1773251351439334100,5.914334228515625,-0.1472625732421875,-0.9857177734375,-0.0189056396484375
1773251351449370000,5.9243701171875,-0.1461334228515625,-0.9859619140625,-0.0182037353515625
1773251351459406000,5.934406005859375,-0.1430511474609375,-0.985504150390625,-0.016754150390625
1773251351469443000,5.944443115234375,-0.14208984375,-0.9840850830078125,-0.016357421875
1773251351479479000,5.95447900390625,-0.1409454345703125,-0.9842071533203125,-0.0138702392578125
1773251351489515000,5.964514892578125,-0.1394500732421875,-0.9832000732421875,-0.01287841796875
1773251351499552300,5.97455224609375,-0.14068603515625,-0.9821319580078125,-0.0128173828125
1773251351509588200,5.984588134765625,-0.1419677734375,-0.982635498046875,-0.01348876953125
1773251351519624200,5.994624267578125,-0.143798828125,-0.9833221435546875,-0.0182342529296875
1773251351529660200,6.00466015625,-0.1471710205078125,-0.98297119140625,-0.0191650390625
1773251351539697200,6.014697265625,-0.14678955078125,-0.981109619140625,-0.0148468017578125
1773251351549733000,6.024733154296875,-0.148284912109375,-0.98468017578125,-0.0137939453125
1773251351559769000,6.03476904296875,-0.1503753662109375,-0.9872894287109375,-0.0160064697265625
1773251351569806000,6.04480615234375,-0.1483001708984375,-0.987548828125,-0.0150299072265625
1773251351579842000,6.054842041015625,-0.1452484130859375,-0.9871673583984375,-0.0127716064453125
1773251351589878000,6.0648779296875,-0.1413421630859375,-0.98834228515625,-0.0145721435546875
1773251351599915000,6.0749150390625,-0.1416473388671875,-0.9898223876953125,-0.017974853515625
1773251351609951200,6.084951171875,-0.1435394287109375,-0.9912872314453125,-0.0176239013671875
1773251351619987200,6.0949873046875,-0.147705078125,-0.9898834228515625,-0.0153045654296875
1773251351630023200,6.105023193359375,-0.15234375,-0.989837646484375,-0.01495361328125
1773251351640060200,6.11506005859375,-0.153350830078125,-0.9897613525390625,-0.0184173583984375
1773251351650096000,6.12509619140625,-0.15283203125,-0.989105224609375,-0.01727294921875
1773251351660132000,6.135132080078125,-0.147216796875,-0.989288330078125,-0.017608642578125
1773251351670169000,6.145169189453125,-0.1450347900390625,-0.9891815185546875,-0.018585205078125
1773251351680205000,6.155205078125,-0.1431732177734375,-0.987945556640625,-0.0160064697265625
1773251351690241000,6.165240966796875,-0.144561767578125,-0.9883270263671875,-0.0188446044921875
1773251351700278000,6.175278076171875,-0.146636962890625,-0.9858856201171875,-0.018218994140625
1773251351710314000,6.18531396484375,-0.147247314453125,-0.98492431640625,-0.0216217041015625
1773251351720350000,6.195349853515625,-0.1483154296875,-0.98431396484375,-0.020904541015625
1773251351730386200,6.20538623046875,-0.1477508544921875,-0.9829254150390625,-0.0203704833984375
1773251351740423200,6.215423095703125,-0.14599609375,-0.983642578125,-0.02020263671875
1773251351750459100,6.225459228515625,-0.1474609375,-0.9855499267578125,-0.020965576171875
1773251351760495000,6.2354951171875,-0.1464385986328125,-0.98590087890625,-0.0224456787109375
1773251351770532000,6.245531982421875,-0.150238037109375,-0.9861907958984375,-0.0198516845703125
1773251351780568000,6.255568115234375,-0.1502532958984375,-0.9875335693359375,-0.0198974609375
1773251351790604000,6.26560400390625,-0.1514739990234375,-0.9847564697265625,-0.0189208984375
1773251351800641000,6.27564111328125,-0.15106201171875,-0.98577880859375,-0.01971435546875
1773251351810677000,6.285677001953125,-0.1488037109375,-0.9875640869140625,-0.019622802734375
1773251351820713000,6.295712890625,-0.1457977294921875,-0.9895782470703125,-0.0192413330078125
1773251351830749000,6.3057490234375,-0.1442413330078125,-0.990325927734375,-0.0193939208984375
1773251351840786200,6.3157861328125,-0.1444091796875,-0.9882965087890625,-0.017333984375
1773251351850822100,6.325822265625,-0.1476593017578125,-0.9863433837890625,-0.0169525146484375
1773251351860858000,6.335858154296875,-0.150177001953125,-0.9853668212890625,-0.01708984375
1773251351870895000,6.34589501953125,-0.1515655517578125,-0.986114501953125,-0.015960693359375
1773251351880931000,6.35593115234375,-0.1505126953125,-0.9870452880859375,-0.013336181640625
1773251351890967000,6.365967041015625,-0.1513824462890625,-0.9893035888671875,-0.0133514404296875
1773251351901004000,6.376004150390625,-0.146636962890625,-0.9901275634765625,-0.0133514404296875
1773251351911040000,6.3860400390625,-0.1426544189453125,-0.9908599853515625,-0.015411376953125
1773251351921076000,6.396075927734375,-0.140380859375,-0.989898681640625,-0.017333984375
1773251351931112000,6.40611181640625,-0.140106201171875,-0.9906768798828125,-0.019073486328125
1773251351941149200,6.416149169921875,-0.1430816650390625,-0.9881744384765625,-0.017669677734375
1773251351951185200,6.42618505859375,-0.14544677734375,-0.985321044921875,-0.0150604248046875
1773251351961221000,6.43622119140625,-0.1480255126953125,-0.98455810546875,-0.0113372802734375
1773251351971258000,6.446258056640625,-0.15216064453125,-0.984771728515625,-0.0108489990234375
1773251351981294000,6.456294189453125,-0.1571807861328125,-0.9832305908203125,-0.0135040283203125
1773251351991330000,6.466330078125,-0.160491943359375,-0.9854278564453125,-0.0115203857421875
1773251352001367000,6.476366943359375,-0.1545562744140625,-0.9870452880859375,-0.012908935546875
1773251352011403000,6.486403076171875,-0.14801025390625,-0.9866790771484375,-0.014678955078125
1773251352021439000,6.49643896484375,-0.1434783935546875,-0.987030029296875,-0.0149078369140625
1773251352031475000,6.506474853515625,-0.145660400390625,-0.987457275390625,-0.01275634765625
1773251352041512200,6.51651220703125,-0.1470489501953125,-0.9868316650390625,-0.0142059326171875
1773251352051548200,6.526548095703125,-0.1477813720703125,-0.9896392822265625,-0.013519287109375
1773251352061584100,6.536584228515625,-0.1459503173828125,-0.990081787109375,-0.0135040283203125
1773251352071621000,6.54662109375,-0.1422271728515625,-0.989044189453125,-0.012664794921875
1773251352081657000,6.556656982421875,-0.1409149169921875,-0.9875640869140625,-0.00946044921875
1773251352091693000,6.566693115234375,-0.141357421875,-0.9852294921875,-0.00653076171875
1773251352101729300,6.576729248046875,-0.1418914794921875,-0.982513427734375,-0.0070037841796875
1773251352111766000,6.58676611328125,-0.1439666748046875,-0.98272705078125,-0.007293701171875
1773251352121802000,6.596802001953125,-0.144989013671875,-0.980560302734375,-0.004730224609375
1773251352131838200,6.606838134765625,-0.144317626953125,-0.979827880859375,-0.005645751953125
1773251352141875000,6.616875,-0.1424560546875,-0.980865478515625,-0.004425048828125
1773251352151911200,6.6269111328125,-0.1402587890625,-0.9818267822265625,-0.0046234130859375
1773251352161947100,6.636947021484375,-0.1416778564453125,-0.9822235107421875,-0.003753662109375
1773251352171984100,6.646984130859375,-0.143524169921875,-0.9833221435546875,-0.002777099609375
1773251352182020000,6.65702001953125,-0.14508056640625,-0.9862518310546875,-0.0065460205078125
1773251352192056000,6.66705615234375,-0.14544677734375,-0.9860687255859375,-0.010040283203125
1773251352202092300,6.67709228515625,-0.145599365234375,-0.983551025390625,-0.016876220703125
1773251352212129000,6.68712890625,-0.1463775634765625,-0.9833831787109375,-0.021148681640625
1773251352222165000,6.6971650390625,-0.148773193359375,-0.986480712890625,-0.0193634033203125
1773251352232201200,6.707201171875,-0.15191650390625,-0.9902801513671875,-0.013458251953125
1773251352242238000,6.717238037109375,-0.1529083251953125,-0.9920806884765625,-0.007598876953125
1773251352252274000,6.72727392578125,-0.157073974609375,-0.9930877685546875,-0.00506591796875
1773251352262309600,6.7373095703125,-0.1585235595703125,-0.99468994140625,-0.005645751953125
1773251352272346600,6.7473466796875,-0.1616973876953125,-0.996124267578125,-0.0056304931640625
1773251352282382600,6.757382568359375,-0.161651611328125,-0.9939117431640625,-0.0059814453125
1773251352292418600,6.76741845703125,-0.158172607421875,-0.992279052734375,-0.0071563720703125
1773251352302454500,6.77745458984375,-0.155487060546875,-0.991607666015625,-0.0106048583984375
1773251352312491500,6.787491455078125,-0.152313232421875,-0.9923858642578125,-0.0091552734375
1773251352322527500,6.797527587890625,-0.1493072509765625,-0.99169921875,-0.0075225830078125
1773251352332563500,6.8075634765625,-0.1495513916015625,-0.9910125732421875,-0.0071868896484375
1773251352342600700,6.8176005859375,-0.1495819091796875,-0.988250732421875,-0.0065155029296875
1773251352352636700,6.82763671875,-0.1484222412109375,-0.9863433837890625,-0.0065765380859375
1773251352362672600,6.837672607421875,-0.14959716796875,-0.986480712890625,-0.0029296875
1773251352372709600,6.847709716796875,-0.1484527587890625,-0.986083984375,0.00006103515625
1773251352382745600,6.85774560546875,-0.1458892822265625,-0.9845733642578125,-0.0115814208984375
1773251352392781600,6.867781494140625,-0.144989013671875,-0.983367919921875,-0.0192108154296875
1773251352402817500,6.877817626953125,-0.14312744140625,-0.9804840087890625,-0.0143280029296875
1773251352412854500,6.8878544921875,-0.1428375244140625,-0.9795074462890625,-0.003814697265625
1773251352422890500,6.897890380859375,-0.1453857421875,-0.9791107177734375,-0.0017242431640625
1773251352432926500,6.907926513671875,-0.1473388671875,-0.9799041748046875,-0.00726318359375
1773251352442963700,6.917963623046875,-0.1488800048828125,-0.9810638427734375,-0.008453369140625
1773251352452999700,6.927999755859375,-0.151397705078125,-0.9796142578125,-0.0051116943359375
1773251352463035600,6.93803564453125,-0.1504974365234375,-0.9822540283203125,-0.0072174072265625
1773251352473072600,6.94807275390625,-0.1499176025390625,-0.9865264892578125,-0.0138702392578125
1773251352483108600,6.958108642578125,-0.149505615234375,-0.9878692626953125,-0.012908935546875
1773251352493144600,6.96814453125,-0.1500244140625,-0.9868011474609375,-0.0054473876953125
1773251352503180500,6.9781806640625,-0.151519775390625,-0.988800048828125,-0.004730224609375
1773251352513217500,6.988217529296875,-0.1534576416015625,-0.9902191162109375,-0.0062103271484375
1773251352523253500,6.99825341796875,-0.1547088623046875,-0.991485595703125,0.00030517578125
1773251352533289500,7.00828955078125,-0.154449462890625,-0.99346923828125,-0.01043701171875
1773251352543326700,7.01832666015625,-0.155029296875,-0.9926910400390625,-0.02069091796875
1773251352553362700,7.02836279296875,-0.15704345703125,-0.992767333984375,-0.0183563232421875
1773251352563398700,7.038398681640625,-0.1567230224609375,-0.9915924072265625,-0.008544921875
1773251352573435600,7.048435546875,-0.15350341796875,-0.9898834228515625,-0.00616455078125
1773251352583471600,7.0584716796875,-0.1513214111328125,-0.987030029296875,-0.0082550048828125
1773251352593507600,7.068507568359375,-0.1493377685546875,-0.9864349365234375,-0.01116943359375
1773251352603543600,7.07854345703125,-0.147613525390625,-0.98529052734375,-0.008941650390625
1773251352613580500,7.08858056640625,-0.14886474609375,-0.9840545654296875,-0.0087127685546875
1773251352623616500,7.098616455078125,-0.1507720947265625,-0.9821319580078125,-0.0092315673828125
1773251352633652500,7.108652587890625,-0.15093994140625,-0.9810638427734375,-0.01031494140625
1773251352643689700,7.118689697265625,-0.1504058837890625,-0.98193359375,-0.0096282958984375
1773251352653725700,7.1287255859375,-0.15216064453125,-0.9812164306640625,-0.009002685546875
1773251352663761700,7.13876171875,-0.151885986328125,-0.979461669921875,-0.0076751708984375
1773251352673798700,7.148798583984375,-0.15582275390625,-0.9803924560546875,-0.0067291259765625
1773251352683834600,7.158834716796875,-0.15545654296875,-0.9822845458984375,-0.0070953369140625
1773251352693870600,7.16887060546875,-0.1542816162109375,-0.9808502197265625,-0.0169525146484375
1773251352703906600,7.178906494140625,-0.1530914306640625,-0.9815521240234375,-0.0125274658203125
1773251352713943600,7.188943603515625,-0.152313232421875,-0.9823455810546875,-0.007293701171875
1773251352723979500,7.1989794921875,-0.153045654296875,-0.98272705078125,-0.0096282958984375
1773251352734015500,7.209015380859375,-0.1573486328125,-0.9851837158203125,-0.011932373046875
1773251352744052500,7.219052490234375,-0.1591339111328125,-0.9878387451171875,-0.0127716064453125
1773251352754088400,7.22908837890625,-0.1590576171875,-0.98822021484375,-0.01165771484375
1773251352764124700,7.239124755859375,-0.163055419921875,-0.98602294921875,-0.0101776123046875
1773251352774160600,7.24916064453125,-0.167816162109375,-0.9824981689453125,-0.014007568359375
1773251352784197600,7.25919775390625,-0.173187255859375,-0.9792633056640625,-0.0162506103515625
1773251352794233600,7.269233642578125,-0.175750732421875,-0.974945068359375,-0.01171875
1773251352804269600,7.27926953125,-0.1725921630859375,-0.976348876953125,-0.0111083984375
1773251352814306600,7.289306640625,-0.165191650390625,-0.9799957275390625,-0.0117034912109375
1773251352824342500,7.299342529296875,-0.1556396484375,-0.98187255859375,-0.0116424560546875
1773251352834378500,7.30937841796875,-0.1493988037109375,-0.9839630126953125,-0.0105438232421875
1773251352844415500,7.31941552734375,-0.1467742919921875,-0.9860687255859375,-0.008331298828125
1773251352854451500,7.329451416015625,-0.1484832763671875,-0.98809814453125,-0.01275634765625
1773251352864487400,7.3394873046875,-0.1588592529296875,-0.9869232177734375,-0.014007568359375
1773251352874523400,7.3495234375,-0.1660614013671875,-0.9853057861328125,-0.010833740234375
1773251352884560600,7.359560546875,-0.1669464111328125,-0.9788360595703125,-0.0089569091796875
1773251352894596600,7.3695966796875,-0.1669921875,-0.9781951904296875,-0.011474609375
1773251352904632600,7.379632568359375,-0.17047119140625,-0.977203369140625,-0.01263427734375
1773251352914669600,7.389669677734375,-0.1782379150390625,-0.9775543212890625,-0.015350341796875
1773251352924705500,7.39970556640625,-0.1823272705078125,-0.979034423828125,-0.0157470703125
1773251352934741500,7.409741455078125,-0.1790771484375,-0.980560302734375,-0.0143280029296875
1773251352944778500,7.419778564453125,-0.17034912109375,-0.9827117919921875,-0.0118255615234375
1773251352954814500,7.429814453125,-0.162384033203125,-0.9842987060546875,-0.01220703125
1773251352964850400,7.439850341796875,-0.16168212890625,-0.9864044189453125,-0.014739990234375
1773251352974886400,7.449886474609375,-0.1660919189453125,-0.986572265625,-0.015960693359375
1773251352984923600,7.459923583984375,-0.1709136962890625,-0.9859161376953125,-0.01629638671875
1773251352994959600,7.469959716796875,-0.173004150390625,-0.9853363037109375,-0.0181427001953125
1773251353004995600,7.47999560546875,-0.1723480224609375,-0.9856414794921875,-0.0188140869140625
1773251353015032600,7.490032470703125,-0.1723175048828125,-0.9861907958984375,-0.0173187255859375
1773251353025068500,7.500068603515625,-0.1739349365234375,-0.9864654541015625,-0.01458740234375
1773251353035104500,7.5101044921875,-0.17572021484375,-0.985992431640625,-0.014434814453125
1773251353045141500,7.5201416015625,-0.176910400390625,-0.98626708984375,-0.01568603515625
1773251353055177500,7.530177490234375,-0.1761932373046875,-0.9852752685546875,-0.019073486328125
1773251353065213400,7.54021337890625,-0.1673126220703125,-0.9829559326171875,-0.0220947265625
1773251353075249400,7.55024951171875,-0.1644134521484375,-0.9817047119140625,-0.022064208984375
1773251353085286700,7.56028662109375,-0.1671905517578125,-0.9811553955078125,-0.022552490234375
1773251353095322600,7.570322509765625,-0.172332763671875,-0.9814910888671875,-0.0209197998046875
1773251353105358600,7.580358642578125,-0.1786651611328125,-0.9803314208984375,-0.01788330078125
1773251353115395600,7.5903955078125,-0.1810150146484375,-0.980560302734375,-0.01702880859375
1773251353125431600,7.600431640625,-0.1790313720703125,-0.980377197265625,-0.0171356201171875
1773251353135467500,7.610467529296875,-0.173370361328125,-0.9821319580078125,-0.0197601318359375
1773251353145504500,7.62050439453125,-0.1655426025390625,-0.982269287109375,-0.0188751220703125
1773251353155540500,7.63054052734375,-0.1615142822265625,-0.98187255859375,-0.0153350830078125
1773251353165576400,7.640576416015625,-0.1610260009765625,-0.983856201171875,-0.01763916015625
1773251353175612400,7.6506123046875,-0.1675262451171875,-0.9861907958984375,-0.0172576904296875
1773251353185649700,7.660649658203125,-0.173095703125,-0.9860382080078125,-0.016937255859375
1773251353195685600,7.670685546875,-0.1762237548828125,-0.9862518310546875,-0.016754150390625
1773251353205721600,7.6807216796875,-0.175537109375,-0.9859466552734375,-0.0188751220703125
1773251353215758600,7.690758544921875,-0.173126220703125,-0.9853363037109375,-0.0208892822265625
1773251353225794600,7.700794677734375,-0.1701507568359375,-0.9841156005859375,-0.0216064453125
1773251353235830500,7.71083056640625,-0.1697998046875,-0.984893798828125,-0.0240631103515625
1773251353245867500,7.720867431640625,-0.1722259521484375,-0.9821929931640625,-0.0242156982421875
1773251353255904300,7.730904296875,-0.17340087890625,-0.9818572998046875,-0.023101806640625
1773251353265940200,7.740940185546875,-0.17626953125,-0.9832305908203125,-0.0200347900390625
1773251353275976400,7.7509765625,-0.175384521484375,-0.9812469482421875,-0.0196380615234375
1773251353286013400,7.761013427734375,-0.172698974609375,-0.9833526611328125,-0.020050048828125
1773251353296049400,7.77104931640625,-0.170745849609375,-0.9838104248046875,-0.0206756591796875
1773251353306085400,7.78108544921875,-0.167755126953125,-0.981292724609375,-0.0206451416015625
1773251353316122400,7.791122314453125,-0.1666717529296875,-0.98193359375,-0.018310546875
1773251353326158300,7.801158447265625,-0.1670074462890625,-0.98095703125,-0.0171356201171875
1773251353336194300,7.8111943359375,-0.1685791015625,-0.9822235107421875,-0.0157318115234375
1773251353346230300,7.821230224609375,-0.1738128662109375,-0.981475830078125,-0.0134429931640625
1773251353356267300,7.831267333984375,-0.176422119140625,-0.9809722900390625,-0.014984130859375
1773251353366303200,7.84130322265625,-0.1773223876953125,-0.98065185546875,-0.0128173828125
1773251353376339200,7.851339111328125,-0.1740264892578125,-0.9824676513671875,-0.013336181640625
1773251353386376400,7.86137646484375,-0.171295166015625,-0.9822540283203125,-0.0152130126953125
1773251353396412400,7.871412353515625,-0.16802978515625,-0.9836273193359375,-0.015289306640625
1773251353406448400,7.881448486328125,-0.16363525390625,-0.9839019775390625,-0.013397216796875
1773251353416485400,7.8914853515625,-0.1631622314453125,-0.984649658203125,-0.011566162109375
1773251353426521300,7.901521240234375,-0.166168212890625,-0.98541259765625,-0.009857177734375
1773251353436557300,7.911557373046875,-0.16961669921875,-0.9859619140625,-0.007080078125
1773251353446593300,7.92159326171875,-0.1734161376953125,-0.98486328125,-0.0060882568359375
1773251353456630300,7.93163037109375,-0.174774169921875,-0.9854888916015625,-0.0070648193359375
1773251353466666200,7.941666259765625,-0.1728057861328125,-0.98394775390625,-0.009185791015625
1773251353476702200,7.9517021484375,-0.168731689453125,-0.983978271484375,-0.012451171875
1773251353486739500,7.961739501953125,-0.1668243408203125,-0.9842987060546875,-0.01226806640625
1773251353496775400,7.971775390625,-0.1649322509765625,-0.9837493896484375,-0.0130462646484375
1773251353506811400,7.981811279296875,-0.163970947265625,-0.9847412109375,-0.0147247314453125
1773251353516848400,7.991848388671875,-0.1649932861328125,-0.9871673583984375,-0.01226806640625
1773251353526884400,8.00188427734375,-0.165557861328125,-0.9862213134765625,-0.0113525390625
1773251353536920300,8.01192041015625,-0.167816162109375,-0.9837646484375,-0.010284423828125
1773251353546956300,8.021956298828124,-0.1658935546875,-0.98272705078125,-0.0071868896484375
1773251353556993300,8.0319931640625,-0.163818359375,-0.98187255859375,-0.0073394775390625
1773251353567029200,8.042029296875,-0.15997314453125,-0.982177734375,-0.00701904296875
1773251353577065200,8.052065185546875,-0.1590423583984375,-0.9827728271484375,-0.0080108642578125
1773251353587102500,8.0621025390625,-0.1598663330078125,-0.984375,-0.0059051513671875
1773251353597138400,8.072138427734375,-0.160675048828125,-0.9846343994140625,-0.00244140625
1773251353607174400,8.08217431640625,-0.1589202880859375,-0.985443115234375,-0.003753662109375
1773251353617211400,8.09221142578125,-0.15692138671875,-0.9858856201171875,-0.001129150390625
1773251353627247400,8.102247314453125,-0.1574554443359375,-0.985809326171875,-0.000457763671875
1773251353637283300,8.112283447265625,-0.15802001953125,-0.986785888671875,-0.002532958984375
1773251353647319300,8.1223193359375,-0.1602783203125,-0.986602783203125,-0.0032806396484375
1773251353657356300,8.132356201171875,-0.162109375,-0.9853515625,-0.0072784423828125
1773251353667392300,8.142392333984375,-0.162567138671875,-0.98358154296875,-0.0074920654296875
1773251353677428200,8.15242822265625,-0.15838623046875,-0.981842041015625,-0.005218505859375
1773251353687465200,8.16246533203125,-0.1590423583984375,-0.98040771484375,-0.00457763671875
1773251353697501400,8.17250146484375,-0.1578216552734375,-0.9820098876953125,-0.00189208984375
1773251353707537400,8.182537353515626,-0.163177490234375,-0.9850921630859375,0.0012359619140625
1773251353717574400,8.192574462890626,-0.1647796630859375,-0.9846343994140625,0.001983642578125
1773251353727610400,8.2026103515625,-0.163116455078125,-0.9846649169921875,-0.0009002685546875
1773251353737646300,8.212646240234376,-0.157867431640625,-0.98480224609375,-0.0050201416015625
1773251353747682300,8.222682373046876,-0.154510498046875,-0.9841156005859375,-0.007598876953125
1773251353757719300,8.23271923828125,-0.152984619140625,-0.980804443359375,-0.0103759765625
1773251353767755300,8.24275537109375,-0.1523590087890625,-0.9769287109375,-0.01239013671875
1773251353777791200,8.252791259765624,-0.1573028564453125,-0.9753570556640625,-0.0134735107421875
1773251353787828200,8.262828125,-0.1659088134765625,-0.976715087890625,-0.0146636962890625
1773251353797864200,8.2728642578125,-0.175689697265625,-0.9801177978515625,-0.0149383544921875
1773251353807900200,8.282900146484375,-0.179534912109375,-0.983245849609375,-0.0136260986328125
1773251353817936400,8.292936279296875,-0.1775360107421875,-0.9821929931640625,-0.0136871337890625
1773251353827973400,8.302973388671875,-0.1715087890625,-0.98406982421875,-0.011871337890625
1773251353838009300,8.31300927734375,-0.1651611328125,-0.9860382080078125,-0.0146942138671875
1773251353848045300,8.32304541015625,-0.164825439453125,-0.9842071533203125,-0.0161285400390625
1773251353858082300,8.333082275390625,-0.1654510498046875,-0.9831390380859375,-0.01690673828125
1773251353868118300,8.3431181640625,-0.1660308837890625,-0.9837799072265625,-0.0185394287109375
1773251353878154200,8.353154296875,-0.1690826416015625,-0.9852447509765625,-0.019989013671875
1773251353888191200,8.363191162109375,-0.1687774658203125,-0.9843597412109375,-0.0169219970703125
1773251353898227200,8.373227294921875,-0.1705780029296875,-0.9820098876953125,-0.013275146484375
1773251353908263200,8.38326318359375,-0.169952392578125,-0.983856201171875,-0.01123046875
1773251353918300400,8.393300537109376,-0.167510986328125,-0.983551025390625,-0.012481689453125
1773251353928336400,8.40333642578125,-0.1660919189453125,-0.983184814453125,-0.0103912353515625
1773251353938372400,8.413372314453126,-0.1658477783203125,-0.9843292236328125,-0.00970458984375
1773251353948408300,8.423408203125,-0.1685638427734375,-0.98468017578125,-0.0100250244140625
1773251353958445300,8.4334453125,-0.1683349609375,-0.984222412109375,-0.008636474609375
1773251353968481300,8.443481201171876,-0.1710968017578125,-0.9846954345703125,-0.005218505859375
1773251353978517200,8.453517333984376,-0.1728515625,-0.9846038818359375,-0.0049591064453125
1773251353988554200,8.46355419921875,-0.1733551025390625,-0.9819488525390625,-0.0061187744140625
1773251353998590200,8.473590087890624,-0.1725921630859375,-0.982391357421875,-0.0050811767578125
1773251354008626200,8.483626220703124,-0.17242431640625,-0.982635498046875,-0.000885009765625
1773251354018663400,8.493663330078125,-0.1728363037109375,-0.98199462890625,-0.0008697509765625
1773251354028699400,8.503699462890625,-0.1728057861328125,-0.9817352294921875,-0.000091552734375
1773251354038735400,8.5137353515625,-0.17376708984375,-0.9802093505859375,0.000823974609375
1773251354048771300,8.523771240234375,-0.17425537109375,-0.98150634765625,0.003021240234375
1773251354058808300,8.533808349609375,-0.17431640625,-0.9824676513671875,0.003021240234375
1773251354068844300,8.54384423828125,-0.17620849609375,-0.9813690185546875,0.0021209716796875
1773251354078880300,8.55388037109375,-0.176544189453125,-0.9816131591796875,0.00030517578125
1773251354088917200,8.563917236328125,-0.1783294677734375,-0.9831085205078125,-0.0007781982421875
1773251354098953200,8.573953125,-0.18084716796875,-0.9840240478515625,0.001312255859375
1773251354108989200,8.5839892578125,-0.1826171875,-0.9834747314453125,0.00152587890625
1773251354119026400,8.5940263671875,-0.1840362548828125,-0.9851226806640625,0.001495361328125
1773251354129062400,8.6040625,-0.1829071044921875,-0.9849395751953125,0.0042877197265625
1773251354139098400,8.614098388671875,-0.179779052734375,-0.9830169677734375,0.006072998046875
1773251354149134300,8.62413427734375,-0.1784515380859375,-0.9825897216796875,0.0057830810546875
1773251354159171300,8.63417138671875,-0.1783599853515625,-0.9837493896484375,0.00347900390625
1773251354169207300,8.644207275390626,-0.1772003173828125,-0.983001708984375,0.00140380859375
1773251354179243300,8.6542431640625,-0.1777191162109375,-0.9824981689453125,0.000091552734375
1773251354189280300,8.6642802734375,-0.1802978515625,-0.9814910888671875,-0.0026397705078125
1773251354199316200,8.674316162109376,-0.1844024658203125,-0.983184814453125,-0.0042877197265625
1773251354209352200,8.684352294921876,-0.187225341796875,-0.9826202392578125,-0.004364013671875
1773251354219388200,8.69438818359375,-0.1853179931640625,-0.9813690185546875,-0.003692626953125
1773251354229425200,8.704425048828124,-0.181610107421875,-0.9803619384765625,-0.0031890869140625
1773251354239461400,8.71446142578125,-0.17840576171875,-0.97930908203125,-0.0044403076171875
1773251354249497300,8.724497314453124,-0.1778717041015625,-0.979583740234375,-0.0058441162109375
1773251354259533800,8.734533935546875,-0.179443359375,-0.9813232421875,-0.0066375732421875
1773251354269569800,8.74456982421875,-0.1816253662109375,-0.981353759765625,-0.006866455078125
1773251354279605800,8.754605712890625,-0.1826629638671875,-0.982147216796875,-0.0091552734375
1773251354289643000,8.76464306640625,-0.1840362548828125,-0.9828338623046875,-0.0070037841796875
1773251354299679000,8.774678955078125,-0.181732177734375,-0.9821929931640625,-0.005462646484375
1773251354309715000,8.78471484375,-0.1796722412109375,-0.9833526611328125,-0.0080108642578125
1773251354319751000,8.7947509765625,-0.1787567138671875,-0.9824371337890625,-0.0086822509765625
1773251354329788000,8.804787841796875,-0.1806640625,-0.98193359375,-0.0059814453125
1773251354339823900,8.814823974609375,-0.185516357421875,-0.98272705078125,-0.0048980712890625
1773251354349859800,8.82485986328125,-0.18597412109375,-0.982086181640625,-0.0020751953125
1773251354359896800,8.834896728515625,-0.1866912841796875,-0.981109619140625,-0.00225830078125
1773251354369932800,8.844932861328125,-0.1856842041015625,-0.9825439453125,-0.002532958984375
1773251354379968800,8.85496875,-0.183441162109375,-0.98046875,-0.0037689208984375
1773251354390005800,8.865005859375,-0.182708740234375,-0.9795074462890625,-0.0066375732421875
1773251354400041700,8.875041748046876,-0.181732177734375,-0.979400634765625,-0.004425048828125
1773251354410078000,8.885077880859376,-0.1829681396484375,-0.9793243408203125,-0.003692626953125
1773251354420114000,8.895114013671876,-0.1845855712890625,-0.9785003662109375,-0.0035247802734375
1773251354430151000,8.90515087890625,-0.1868133544921875,-0.9774627685546875,-0.003204345703125
1773251354440187000,8.915186767578126,-0.1866302490234375,-0.9774932861328125,-0.00201416015625
1773251354450222800,8.925222900390626,-0.1856536865234375,-0.9771270751953125,-0.000946044921875
1773251354460259800,8.935259765625,-0.18255615234375,-0.9780731201171875,-0.0003814697265625
1773251354470295800,8.9452958984375,-0.1840667724609375,-0.976898193359375,-0.0008544921875
1773251354480331800,8.955331787109374,-0.18377685546875,-0.979461669921875,0.0006866455078125
1773251354490368800,8.96536865234375,-0.1837921142578125,-0.9803009033203125,-0.00128173828125
1773251354500404700,8.97540478515625,-0.1850433349609375,-0.980560302734375,-0.0045013427734375
1773251354510440700,8.985440673828125,-0.18707275390625,-0.9809722900390625,-0.0036468505859375
1773251354520477000,8.995476806640625,-0.1897430419921875,-0.980621337890625,-0.0035400390625
1773251354530514000,9.005513916015625,-0.1924285888671875,-0.9806365966796875,-0.0024566650390625
1773251354540550000,9.0155498046875,-0.194244384765625,-0.98114013671875,-0.0018310546875
1773251354550586000,9.025586181640625,-0.1932373046875,-0.9842987060546875,-0.0030517578125
1773251354560622800,9.035622802734375,-0.191864013671875,-0.9841461181640625,-0.003875732421875
1773251354570658800,9.045658935546875,-0.1902618408203125,-0.9827728271484375,-0.0046539306640625
1773251354580695000,9.055695068359375,-0.19140625,-0.9824981689453125,-0.0038909912109375
1773251354590731800,9.065731689453125,-0.1905975341796875,-0.979949951171875,-0.004241943359375
1773251354600767700,9.075767822265625,-0.1899261474609375,-0.9766082763671875,-0.0056304931640625
1773251354610804000,9.085803955078125,-0.189361572265625,-0.977996826171875,-0.003021240234375
1773251354620840000,9.09583984375,-0.188079833984375,-0.9815521240234375,-0.00311279296875
1773251354630877000,9.105876953125,-0.186126708984375,-0.984375,-0.005279541015625
1773251354640913000,9.115912841796876,-0.1865081787109375,-0.9865264892578125,-0.0056304931640625
1773251354650949000,9.12594921875,-0.1837921142578125,-0.986602783203125,-0.00286865234375
1773251354660985900,9.13598583984375,-0.1835174560546875,-0.9890899658203125,-0.0065155029296875
1773251354671021800,9.146021728515626,-0.1833953857421875,-0.98846435546875,-0.0063629150390625
1773251354681058000,9.15605810546875,-0.18206787109375,-0.9832611083984375,-0.007720947265625
1773251354691094800,9.1660947265625,-0.1831207275390625,-0.9810791015625,-0.006500244140625
1773251354701130800,9.176130859375,-0.18768310546875,-0.97991943359375,-0.0094451904296875
1773251354711167000,9.1861669921875,-0.1950225830078125,-0.9792327880859375,-0.012451171875
1773251354721203000,9.196202880859374,-0.197998046875,-0.978057861328125,-0.01385498046875
1773251354731240000,9.206239990234375,-0.1943817138671875,-0.9786834716796875,-0.01092529296875
1773251354741276000,9.21627587890625,-0.1871490478515625,-0.9798126220703125,-0.0078582763671875
1773251354751312100,9.22631201171875,-0.17840576171875,-0.980010986328125,-0.005340576171875
1773251354761348900,9.236348876953125,-0.1710357666015625,-0.9781341552734375,-0.0043792724609375
1773251354771384800,9.246384765625,-0.170379638671875,-0.9792938232421875,-0.0049285888671875
1773251354781421000,9.256421142578125,-0.1743621826171875,-0.977081298828125,-0.0110321044921875
1773251354791457800,9.266457763671875,-0.1786956787109375,-0.9788360595703125,-0.018829345703125
1773251354801493800,9.27649365234375,-0.1843719482421875,-0.9811248779296875,-0.01788330078125
1773251354811530000,9.286530029296875,-0.18585205078125,-0.981597900390625,-0.016143798828125
1773251354821566000,9.29656591796875,-0.1827392578125,-0.981964111328125,-0.015594482421875
1773251354831603000,9.30660302734375,-0.1790618896484375,-0.982177734375,-0.0131988525390625
1773251354841639200,9.31663916015625,-0.1777801513671875,-0.9824676513671875,-0.0098876953125
1773251354851675100,9.326675048828125,-0.1793060302734375,-0.98126220703125,-0.01007080078125
1773251354861712000,9.3367119140625,-0.18048095703125,-0.982574462890625,-0.010711669921875
1773251354871748000,9.346748046875,-0.1823272705078125,-0.981231689453125,-0.0124053955078125
1773251354881784000,9.3567841796875,-0.182098388671875,-0.9797210693359375,-0.0104522705078125
1773251354891820800,9.36682080078125,-0.1791839599609375,-0.9804840087890625,-0.0066375732421875
1773251354901857000,9.37685693359375,-0.18096923828125,-0.980499267578125,-0.0091400146484375
1773251354911893000,9.38689306640625,-0.1818695068359375,-0.97845458984375,-0.0103302001953125
1773251354921929000,9.396928955078126,-0.18206787109375,-0.979583740234375,-0.009674072265625
1773251354931966000,9.406966064453124,-0.1817779541015625,-0.9813232421875,-0.0091552734375
1773251354942002000,9.417001953125,-0.178863525390625,-0.9808807373046875,-0.00933837890625
1773251354952038100,9.4270380859375,-0.17633056640625,-0.9809722900390625,-0.0091094970703125
1773251354962075000,9.437074951171875,-0.173583984375,-0.981414794921875,-0.0090179443359375
1773251354972111000,9.447111083984375,-0.172760009765625,-0.9818267822265625,-0.009063720703125
1773251354982147000,9.45714697265625,-0.174560546875,-0.983245849609375,-0.009124755859375
1773251354992183000,9.46718310546875,-0.17840576171875,-0.9853668212890625,-0.0101165771484375
1773251355002220000,9.477219970703125,-0.1819610595703125,-0.984832763671875,-0.0072784423828125
1773251355012256000,9.487256103515625,-0.1821136474609375,-0.984527587890625,-0.0103912353515625
1773251355022292000,9.4972919921875,-0.17828369140625,-0.98492431640625,-0.011322021484375
1773251355032329000,9.507328857421875,-0.1745758056640625,-0.9850311279296875,-0.0110015869140625
1773251355042365000,9.517364990234375,-0.1694488525390625,-0.984405517578125,-0.0094146728515625
1773251355052401000,9.52740087890625,-0.1674346923828125,-0.984222412109375,-0.0084381103515625
1773251355062438000,9.53743798828125,-0.1707763671875,-0.98565673828125,-0.009429931640625
1773251355072474000,9.54747412109375,-0.1748809814453125,-0.985076904296875,-0.008544921875
1773251355082510000,9.557510009765625,-0.1775054931640625,-0.983612060546875,-0.007415771484375
1773251355092546000,9.567546142578125,-0.1798858642578125,-0.9831390380859375,-0.007049560546875
1773251355102583000,9.5775830078125,-0.1766357421875,-0.98321533203125,-0.0095062255859375
1773251355112619000,9.587618896484376,-0.173187255859375,-0.983245849609375,-0.0117034912109375
1773251355122655000,9.597655029296876,-0.17095947265625,-0.9796142578125,-0.01422119140625
1773251355132692000,9.60769189453125,-0.1686859130859375,-0.98052978515625,-0.0137176513671875
1773251355142728000,9.61772802734375,-0.1667327880859375,-0.9792938232421875,-0.010894775390625
1773251355152764000,9.627763916015626,-0.168365478515625,-0.97747802734375,-0.0090484619140625
1773251355162801200,9.63780126953125,-0.1694183349609375,-0.97857666015625,-0.008087158203125
1773251355172837000,9.647837158203124,-0.1727294921875,-0.97698974609375,-0.00921630859375
1773251355182873000,9.657873046875,-0.17547607421875,-0.977386474609375,-0.0093841552734375
1773251355192909000,9.667908935546874,-0.175140380859375,-0.9791259765625,-0.0096893310546875
1773251355202946000,9.677946044921875,-0.1727294921875,-0.9798126220703125,-0.00982666015625
1773251355212982000,9.68798193359375,-0.1703643798828125,-0.980224609375,-0.0114898681640625
1773251355223018000,9.69801806640625,-0.1657257080078125,-0.982086181640625,-0.01287841796875
1773251355233055000,9.708054931640625,-0.168121337890625,-0.98333740234375,-0.0087738037109375
1773251355243091000,9.718091064453125,-0.1708526611328125,-0.9828643798828125,-0.0057525634765625
1773251355253127000,9.728126953125,-0.1753997802734375,-0.9843902587890625,-0.008056640625
1773251355263165200,9.738165283203125,-0.179534912109375,-0.9850006103515625,-0.0079345703125
1773251355273201200,9.748201171875,-0.1797332763671875,-0.985595703125,-0.009307861328125
1773251355283237000,9.758237060546875,-0.1769866943359375,-0.98638916015625,-0.00836181640625
1773251355293273000,9.768273193359375,-0.1723480224609375,-0.9818115234375,-0.0096588134765625
1773251355303310000,9.77831005859375,-0.16937255859375,-0.9822540283203125,-0.0094146728515625
1773251355313346000,9.788345947265626,-0.17047119140625,-0.982421875,-0.009857177734375
1773251355323382000,9.798382080078126,-0.171875,-0.9844512939453125,-0.0114593505859375
1773251355333419000,9.8084189453125,-0.1750640869140625,-0.985565185546875,-0.009063720703125
1773251355343455000,9.818455078125,-0.1776885986328125,-0.986297607421875,-0.005157470703125
1773251355353491000,9.828490966796876,-0.178497314453125,-0.9852752685546875,-0.0052947998046875
1773251355363528200,9.838528076171874,-0.1771392822265625,-0.9844970703125,-0.00537109375
1773251355373564200,9.848564208984374,-0.176788330078125,-0.9822235107421875,-0.005279541015625
1773251355383600000,9.85860009765625,-0.17547607421875,-0.9809722900390625,-0.007904052734375
1773251355393636400,9.86863623046875,-0.1682281494140625,-0.98101806640625,-0.0099334716796875
1773251355403673000,9.878673095703125,-0.164276123046875,-0.9807281494140625,-0.0117950439453125
1773251355413709000,9.888708984375,-0.162872314453125,-0.97955322265625,-0.013397216796875
1773251355423745300,9.898745361328125,-0.1624755859375,-0.979339599609375,-0.0145111083984375
1773251355433782000,9.908781982421875,-0.1643218994140625,-0.9813385009765625,-0.011505126953125
1773251355443818000,9.91881787109375,-0.1668548583984375,-0.9810028076171875,-0.010223388671875
1773251355453854200,9.928854248046875,-0.166473388671875,-0.979461669921875,-0.008941650390625
1773251355463891000,9.938890869140625,-0.1646728515625,-0.981170654296875,-0.0106964111328125
1773251355473927200,9.94892724609375,-0.1613006591796875,-0.9802703857421875,-0.01373291015625
1773251355483963100,9.958963134765625,-0.1630859375,-0.98150634765625,-0.013824462890625
1773251355493999400,9.968999267578125,-0.1659393310546875,-0.9823150634765625,-0.0116119384765625
1773251355504036000,9.9790361328125,-0.171112060546875,-0.9836273193359375,-0.011199951171875
1773251355514072000,9.989072021484375,-0.1743011474609375,-0.9837493896484375,-0.0095367431640625
1773251355524108300,9.9991083984375,-0.1767730712890625,-0.9852142333984375,-0.007293701171875
1773251355534145000,10.00914501953125,-0.1740875244140625,-0.9866485595703125,-0.0067901611328125
1773251355544181000,10.019180908203126,-0.1724700927734375,-0.98895263671875,-0.0065460205078125
1773251355554217200,10.02921728515625,-0.1705322265625,-0.9875946044921875,-0.0094146728515625
1773251355564254000,10.03925390625,-0.1696319580078125,-0.9849395751953125,-0.0128173828125
1773251355574290000,10.0492900390625,-0.1692962646484375,-0.9824371337890625,-0.0115509033203125
1773251355584326100,10.059326171875,-0.171630859375,-0.978759765625,-0.0116119384765625
1773251355594362400,10.0693623046875,-0.1748046875,-0.9796600341796875,-0.009735107421875
1773251355604399000,10.079399169921874,-0.1753997802734375,-0.9847259521484375,-0.0081939697265625
1773251355614435000,10.08943505859375,-0.175140380859375,-0.9866790771484375,-0.0057830810546875
1773251355624471300,10.09947119140625,-0.1731719970703125,-0.988525390625,-0.001800537109375
1773251355634508000,10.109508056640625,-0.1705780029296875,-0.991668701171875,-0.0025482177734375
1773251355644544000,10.1195439453125,-0.169158935546875,-0.992767333984375,-0.0047760009765625
1773251355654580200,10.129580322265625,-0.1641845703125,-0.9886016845703125,-0.0052947998046875
1773251355664617000,10.139616943359375,-0.16314697265625,-0.983367919921875,-0.00018310546875
1773251355674653000,10.14965283203125,-0.1689300537109375,-0.9794158935546875,0.005096435546875
1773251355684689200,10.159689208984375,-0.17669677734375,-0.9810028076171875,0.0032958984375
1773251355694725000,10.16972509765625,-0.1872406005859375,-0.9830322265625,-0.0015106201171875
1773251355704762000,10.17976220703125,-0.1875152587890625,-0.98443603515625,0.0008544921875
1773251355714798300,10.18979833984375,-0.183563232421875,-0.9840087890625,0.003082275390625
1773251355724834300,10.199834228515625,-0.174896240234375,-0.986724853515625,0.0004119873046875
1773251355734871000,10.20987109375,-0.1704864501953125,-0.9846954345703125,-0.0005950927734375
1773251355744907300,10.2199072265625,-0.1692657470703125,-0.982421875,-0.0009918212890625
1773251355754943200,10.229943115234375,-0.172210693359375,-0.9802703857421875,-0.0026397705078125
1773251355764980000,10.23997998046875,-0.1744232177734375,-0.9797210693359375,-0.0058746337890625
1773251355775016200,10.25001611328125,-0.1769561767578125,-0.979095458984375,-0.00665283203125
1773251355785052200,10.26005224609375,-0.1780853271484375,-0.9801483154296875,-0.004547119140625
1773251355795088100,10.270088134765626,-0.1786041259765625,-0.979736328125,-0.00347900390625
1773251355805125000,10.280125,-0.1774444580078125,-0.97906494140625,-0.0025177001953125
1773251355815161300,10.290161376953124,-0.176025390625,-0.9789276123046875,0.00048828125
1773251355825197300,10.300197265625,-0.177490234375,-0.9783782958984375,-0.000396728515625
1773251355835234000,10.310234130859374,-0.17510986328125,-0.9774169921875,-0.000152587890625
1773251355845270300,10.320270263671874,-0.1763153076171875,-0.9782867431640625,-0.0040130615234375
1773251355855306200,10.33030615234375,-0.1780548095703125,-0.977996826171875,-0.0072784423828125
1773251355865343000,10.340343017578125,-0.17919921875,-0.979217529296875,-0.006622314453125
1773251355875379200,10.350379150390625,-0.1839599609375,-0.979217529296875,-0.0027923583984375
1773251355885415200,10.360415283203125,-0.1873321533203125,-0.9802093505859375,-0.002838134765625
1773251355895451100,10.370451171875,-0.18780517578125,-0.9812774658203125,-0.0047149658203125
1773251355905488100,10.380488037109375,-0.1839447021484375,-0.98199462890625,-0.0046234130859375
1773251355915524400,10.3905244140625,-0.1778717041015625,-0.9825286865234375,-0.004974365234375
1773251355925560300,10.400560302734375,-0.1743316650390625,-0.98272705078125,-0.0086517333984375
1773251355935597000,10.41059716796875,-0.1737518310546875,-0.98248291015625,-0.0090789794921875
1773251355945633300,10.42063330078125,-0.1745147705078125,-0.9835052490234375,-0.00885009765625
1773251355955669200,10.430669189453125,-0.179656982421875,-0.9837799072265625,-0.0087738037109375
1773251355965705200,10.440705322265625,-0.184295654296875,-0.98406982421875,-0.0054779052734375
1773251355975742200,10.4507421875,-0.1898956298828125,-0.985504150390625,-0.0018157958984375
1773251355985778200,10.460778076171875,-0.1928253173828125,-0.983734130859375,-0.0006561279296875
1773251355995814100,10.470814208984375,-0.1919708251953125,-0.9813079833984375,-0.0018310546875
1773251356005851100,10.48085107421875,-0.1877288818359375,-0.9823455810546875,-0.00274658203125
1773251356015887400,10.490887451171876,-0.1838836669921875,-0.979278564453125,-0.005706787109375
1773251356025923300,10.50092333984375,-0.17828369140625,-0.98065185546875,-0.0041961669921875
1773251356035960300,10.510960205078124,-0.1773529052734375,-0.980560302734375,-0.00262451171875
1773251356045996300,10.520996337890624,-0.17950439453125,-0.979461669921875,-0.002288818359375
1773251356056032300,10.5310322265625,-0.18182373046875,-0.9810028076171875,-0.0027923583984375
1773251356066069200,10.5410693359375,-0.181182861328125,-0.9815673828125,-0.000640869140625
1773251356076105200,10.551105224609374,-0.18060302734375,-0.982330322265625,0.0001678466796875
1773251356086141200,10.56114111328125,-0.1790924072265625,-0.98193359375,-0.0017242431640625
1773251356096177200,10.57117724609375,-0.178253173828125,-0.9807586669921875,-0.002838134765625
1773251356106214100,10.581214111328125,-0.1782989501953125,-0.9816131591796875,-0.0033111572265625
1773251356116250000,10.59125,-0.180908203125,-0.9829254150390625,-0.0052642822265625
1773251356126286000,10.6012861328125,-0.182159423828125,-0.983917236328125,-0.0031890869140625
1773251356136323300,10.6113232421875,-0.184051513671875,-0.98345947265625,-0.000213623046875
1773251356146359300,10.621359375,-0.18438720703125,-0.983184814453125,-0.002044677734375
1773251356156395300,10.631395263671875,-0.185882568359375,-0.9838104248046875,-0.0041656494140625
1773251356166431200,10.64143115234375,-0.185089111328125,-0.9824371337890625,-0.0016021728515625
1773251356176468200,10.65146826171875,-0.183746337890625,-0.9825286865234375,-0.000457763671875
1773251356186504200,10.661504150390625,-0.18035888671875,-0.98193359375,-0.002777099609375
1773251356196540200,10.6715400390625,-0.18121337890625,-0.9814605712890625,-0.0041351318359375
1773251356206577200,10.6815771484375,-0.1811370849609375,-0.980743408203125,-0.001495361328125
1773251356216613000,10.691613037109375,-0.18353271484375,-0.98223876953125,-0.0017242431640625
1773251356226649000,10.701649169921875,-0.1860504150390625,-0.9817047119140625,-0.0037689208984375
1773251356236686300,10.711686279296876,-0.1844024658203125,-0.9804229736328125,-0.0027618408203125
1773251356246722300,10.721722412109376,-0.18206787109375,-0.9799652099609375,-0.0017852783203125
1773251356256758300,10.73175830078125,-0.18084716796875,-0.979766845703125,-0.001434326171875
1773251356266792400,10.74179248046875,-0.179168701171875,-0.9805755615234375,-0.0030059814453125
1773251356276829400,10.751829345703126,-0.182037353515625,-0.9796142578125,-0.00390625
1773251356286865400,10.761865478515626,-0.183380126953125,-0.9813690185546875,-0.0049285888671875
1773251356296901400,10.7719013671875,-0.186737060546875,-0.981658935546875,-0.00213623046875
1773251356306938400,10.7819384765625,-0.18560791015625,-0.98236083984375,0.00048828125
1773251356316974300,10.791974365234376,-0.1864166259765625,-0.9817352294921875,0.0019378662109375
1773251356327010600,10.802010498046876,-0.183074951171875,-0.980499267578125,0.0022430419921875
1773251356337047600,10.812047607421874,-0.1799163818359375,-0.979888916015625,-0.0020904541015625
1773251356347083500,10.82208349609375,-0.1772003173828125,-0.9807586669921875,-0.0012054443359375
1773251356357119500,10.832119384765624,-0.17529296875,-0.9808502197265625,-0.0030517578125
1773251356367155500,10.842155517578124,-0.176055908203125,-0.9802093505859375,-0.004425048828125
1773251356377192400,10.8521923828125,-0.1767120361328125,-0.980712890625,-0.0043487548828125
1773251356387228400,10.862228515625,-0.1796417236328125,-0.980255126953125,-0.0053863525390625
1773251356397264400,10.872264404296875,-0.1790313720703125,-0.9806060791015625,-0.0063629150390625
1773251356407301400,10.88230126953125,-0.1788330078125,-0.98016357421875,-0.0032501220703125
1773251356417337300,10.89233740234375,-0.176422119140625,-0.9805450439453125,-0.001983642578125
1773251356427373300,10.902373291015625,-0.1733551025390625,-0.97918701171875,-0.00347900390625
1773251356437410600,10.91241064453125,-0.1748199462890625,-0.9785614013671875,-0.004791259765625
1773251356447446500,10.922446533203125,-0.177947998046875,-0.9780120849609375,-0.00433349609375
1773251356457482500,10.932482421875,-0.17950439453125,-0.9795684814453125,-0.003814697265625
1773251356467518500,10.9425185546875,-0.177886962890625,-0.978424072265625,-0.00640869140625
1773251356477555500,10.952555419921875,-0.176300048828125,-0.97906494140625,-0.0086212158203125
1773251356487591400,10.96259130859375,-0.1739654541015625,-0.9799041748046875,-0.0109405517578125
1773251356497627400,10.97262744140625,-0.173858642578125,-0.97894287109375,-0.0102996826171875
1773251356507664400,10.982664306640626,-0.1784515380859375,-0.976470947265625,-0.0116119384765625
1773251356517700400,10.992700439453126,-0.1809234619140625,-0.9722442626953125,-0.0102691650390625
1773251356527736300,11.002736328125,-0.1830596923828125,-0.9727020263671875,-0.010833740234375
1773251356537773600,11.012773681640626,-0.182769775390625,-0.97467041015625,-0.0134124755859375
1773251356547809500,11.0228095703125,-0.1799774169921875,-0.97796630859375,-0.0143585205078125
1773251356557845500,11.032845458984376,-0.174713134765625,-0.9828948974609375,-0.0086517333984375
1773251356567881500,11.042881591796874,-0.1696624755859375,-0.9854278564453125,-0.0085601806640625
1773251356577918500,11.05291845703125,-0.1656646728515625,-0.989410400390625,-0.010101318359375
1773251356587954400,11.062954345703124,-0.1692047119140625,-0.990081787109375,-0.0121307373046875
1773251356597990400,11.072990478515624,-0.1738433837890625,-0.9888916015625,-0.0112762451171875
1773251356608027400,11.08302734375,-0.179229736328125,-0.987091064453125,-0.0125579833984375
1773251356618063400,11.0930634765625,-0.182952880859375,-0.9806365966796875,-0.011566162109375
1773251356628099300,11.103099365234375,-0.18603515625,-0.98052978515625,-0.0094757080078125
1773251356638136600,11.113136474609375,-0.1900482177734375,-0.979278564453125,-0.0081787109375
1773251356648172500,11.123172607421875,-0.187744140625,-0.97821044921875,-0.0080413818359375
1773251356658208500,11.13320849609375,-0.18072509765625,-0.97991943359375,-0.005218505859375
1773251356668244500,11.143244384765625,-0.17218017578125,-0.9781341552734375,-0.0033416748046875
1773251356678281500,11.153281494140625,-0.1658782958984375,-0.9802093505859375,-0.005615234375
1773251356688317400,11.1633173828125,-0.1629791259765625,-0.979949951171875,-0.0080108642578125
1773251356698353400,11.173353515625,-0.1678314208984375,-0.9799957275390625,-0.009521484375
1773251356708390400,11.183390380859375,-0.17254638671875,-0.9802703857421875,-0.009857177734375
1773251356718426400,11.19342626953125,-0.17559814453125,-0.9817047119140625,-0.007781982421875
1773251356728462300,11.20346240234375,-0.175506591796875,-0.98101806640625,-0.00347900390625
1773251356738499300,11.213499267578126,-0.1715087890625,-0.9817962646484375,-0.003631591796875
1773251356748535600,11.22353564453125,-0.1695098876953125,-0.9818115234375,-0.0063018798828125
1773251356758571500,11.233571533203126,-0.1691131591796875,-0.9827728271484375,-0.0066680908203125
1773251356768607700,11.243607666015626,-0.1712493896484375,-0.98321533203125,-0.0059051513671875
1773251356778644500,11.25364453125,-0.1739501953125,-0.98291015625,-0.003814697265625
1773251356788680400,11.263680419921876,-0.176971435546875,-0.9834747314453125,-0.004974365234375
1773251356798716700,11.273716552734374,-0.1775665283203125,-0.984283447265625,-0.0044708251953125
1773251356808753400,11.28375341796875,-0.1777191162109375,-0.9850311279296875,-0.0042266845703125
1773251356818789400,11.293789306640624,-0.177642822265625,-0.985504150390625,-0.0039215087890625
1773251356828825600,11.30382568359375,-0.177886962890625,-0.9852142333984375,-0.0054931640625
1773251356838862300,11.3138623046875,-0.17742919921875,-0.9864044189453125,-0.005035400390625
1773251356848898300,11.323898193359375,-0.1751861572265625,-0.9856414794921875,-0.005279541015625
1773251356858934500,11.3339345703125,-0.1741180419921875,-0.9832305908203125,-0.0078125
1773251356868970800,11.343970703125,-0.172637939453125,-0.9814605712890625,-0.0050048828125
1773251356879007500,11.354007568359375,-0.169281005859375,-0.97998046875,-0.003204345703125
1773251356889043500,11.36404345703125,-0.170135498046875,-0.9789276123046875,-0.0029754638671875
1773251356899079700,11.37407958984375,-0.1739044189453125,-0.9782867431640625,-0.00537109375
1773251356909116400,11.384116455078125,-0.1759033203125,-0.97967529296875,-0.0074462890625
1773251356919152400,11.39415234375,-0.1784210205078125,-0.9794464111328125,-0.006591796875
1773251356929188600,11.404188720703125,-0.1779632568359375,-0.9788818359375,-0.005950927734375
1773251356939225300,11.414225341796875,-0.1765594482421875,-0.9807281494140625,-0.0055999755859375
1773251356949261300,11.42426123046875,-0.1766204833984375,-0.9802093505859375,-0.005401611328125
1773251356959297500,11.434297607421875,-0.176666259765625,-0.9800262451171875,-0.0059967041015625
1773251356969333500,11.44433349609375,-0.1759185791015625,-0.9798126220703125,-0.0042266845703125
1773251356979370500,11.45437060546875,-0.176910400390625,-0.980133056640625,-0.004180908203125
1773251356989406500,11.464406494140626,-0.176055908203125,-0.9810638427734375,-0.0067901611328125
1773251356999442700,11.474442626953126,-0.1764984130859375,-0.980987548828125,-0.0064697265625
1773251357009479400,11.4844794921875,-0.1757965087890625,-0.981658935546875,-0.005645751953125
1773251357019515400,11.494515380859376,-0.1762847900390625,-0.981109619140625,-0.0042877197265625
1773251357029551600,11.504551513671874,-0.17816162109375,-0.9808197021484375,-0.003387451171875
1773251357039587600,11.514587646484374,-0.181671142578125,-0.9809417724609375,-0.001556396484375
1773251357049624300,11.524624267578124,-0.1832427978515625,-0.9823760986328125,-0.0018768310546875
1773251357059660500,11.53466064453125,-0.180908203125,-0.9836578369140625,-0.0015106201171875
1773251357069696500,11.544696533203124,-0.18157958984375,-0.9826507568359375,-0.0036773681640625
1773251357079733500,11.5547333984375,-0.1810455322265625,-0.982421875,-0.0039825439453125
1773251357089769700,11.564769775390625,-0.1798553466796875,-0.98211669921875,-0.0037689208984375
1773251357099805700,11.5748056640625,-0.1792144775390625,-0.981597900390625,-0.0043792724609375
1773251357109842400,11.584842529296875,-0.17791748046875,-0.9817047119140625,-0.00225830078125
1773251357119878700,11.594878662109375,-0.17767333984375,-0.981231689453125,-0.001983642578125
1773251357129914600,11.60491455078125,-0.176971435546875,-0.9814605712890625,-0.0017242431640625
1773251357139951400,11.614951416015625,-0.1790771484375,-0.983367919921875,-0.003448486328125
1773251357149987600,11.624987548828125,-0.182403564453125,-0.9814453125,-0.00494384765625
1773251357160023600,11.6350234375,-0.1811370849609375,-0.9814300537109375,-0.0044097900390625
1773251357170059500,11.6450595703125,-0.182586669921875,-0.9807891845703125,-0.0044097900390625
1773251357180096500,11.655096435546875,-0.182403564453125,-0.98052978515625,-0.005462646484375
1773251357190132700,11.6651328125,-0.1818389892578125,-0.980499267578125,-0.004119873046875
1773251357200168700,11.675168701171875,-0.1823883056640625,-0.97991943359375,-0.002166748046875
1773251357210205400,11.685205322265626,-0.183074951171875,-0.97967529296875,-0.0012969970703125
1773251357220241700,11.69524169921875,-0.1817474365234375,-0.9781951904296875,-0.0053558349609375
1773251357230277600,11.705277587890626,-0.1820526123046875,-0.97784423828125,-0.0092315673828125
1773251357240313600,11.715313720703126,-0.182403564453125,-0.9783782958984375,-0.010772705078125
1773251357250350600,11.7253505859375,-0.1818389892578125,-0.9780120849609375,-0.006134033203125
1773251357260386600,11.735386474609374,-0.18145751953125,-0.9792633056640625,-0.004638671875
1773251357270422500,11.745422607421874,-0.1810455322265625,-0.9792022705078125,-0.0044708251953125
1773251357280459500,11.75545947265625,-0.1822662353515625,-0.97943115234375,-0.0027008056640625
1773251357290495500,11.76549560546875,-0.183685302734375,-0.97979736328125,-0.004119873046875
1773251357300531500,11.775531494140624,-0.1849822998046875,-0.9796600341796875,-0.005035400390625
1773251357310568400,11.785568359375,-0.185089111328125,-0.9791259765625,-0.0070648193359375
1773251357320604400,11.7956044921875,-0.1856689453125,-0.9811859130859375,-0.0065460205078125
1773251357330640400,11.805640380859375,-0.18499755859375,-0.98175048828125,-0.00634765625
1773251357340677400,11.815677490234375,-0.18597412109375,-0.983917236328125,-0.008514404296875
1773251357350713600,11.825713623046875,-0.1853179931640625,-0.9830169677734375,-0.006011962890625
1773251357360749600,11.83574951171875,-0.18310546875,-0.9822235107421875,-0.0032958984375
1773251357370785500,11.84578564453125,-0.1827850341796875,-0.9839019775390625,-0.0035400390625
1773251357380822500,11.855822509765625,-0.1842498779296875,-0.9824371337890625,-0.00653076171875
1773251357390858500,11.8658583984375,-0.1853485107421875,-0.97998046875,-0.006134033203125
1773251357400894500,11.87589453125,-0.185821533203125,-0.9784393310546875,-0.0072021484375
1773251357410931500,11.885931396484375,-0.185516357421875,-0.9771881103515625,-0.006439208984375
1773251357420967400,11.895967529296875,-0.186187744140625,-0.97833251953125,-0.00445556640625
1773251357431003400,11.90600341796875,-0.1832427978515625,-0.9801483154296875,-0.006439208984375
1773251357441039400,11.916039306640625,-0.1818084716796875,-0.9755401611328125,-0.0004730224609375
1773251357451076600,11.92607666015625,-0.1861724853515625,-0.9774017333984375,0.00244140625
1773251357461112600,11.936112548828126,-0.1865997314453125,-0.9809417724609375,0.0034942626953125
1773251357471148500,11.9461484375,-0.1846771240234375,-0.9817047119140625,-0.0013427734375
1773251357481185500,11.956185546875,-0.18011474609375,-0.9827728271484375,-0.002899169921875
1773251357491221500,11.966221435546874,-0.17730712890625,-0.9817352294921875,-0.002685546875
1773251357501257500,11.976257568359374,-0.1782073974609375,-0.97760009765625,-0.0038299560546875
1773251357511294500,11.98629443359375,-0.1829986572265625,-0.977264404296875,-0.004638671875
1773251357521330400,11.996330322265624,-0.1918487548828125,-0.975982666015625,-0.0041961669921875
1773251357531366400,12.006366455078124,-0.1963958740234375,-0.9781341552734375,-0.00311279296875
1773251357541403400,12.0164033203125,-0.19757080078125,-0.980072021484375,-0.003143310546875
1773251357551439400,12.026439453125,-0.1910400390625,-0.9835662841796875,-0.004241943359375
1773251357561475300,12.036475341796875,-0.1827545166015625,-0.980743408203125,0.0005035400390625
1773251357571511600,12.046511474609375,-0.1803131103515625,-0.9798431396484375,0.003631591796875
1773251357581548500,12.056548583984375,-0.182281494140625,-0.9818267822265625,-0.0009002685546875
1773251357591584500,12.06658447265625,-0.1873931884765625,-0.9821319580078125,-0.0088043212890625
1773251357601620500,12.076620361328125,-0.1895751953125,-0.9836578369140625,-0.0088653564453125
1773251357611657500,12.086657470703125,-0.191070556640625,-0.9842987060546875,-0.0088043212890625
1773251357621693400,12.096693359375,-0.1937408447265625,-0.9830780029296875,-0.00897216796875
1773251357631729400,12.1067294921875,-0.1930084228515625,-0.983154296875,-0.0072784423828125
1773251357641765400,12.116765380859375,-0.190277099609375,-0.98150634765625,-0.007080078125
1773251357651802400,12.12680224609375,-0.188262939453125,-0.978302001953125,-0.006805419921875
1773251357661838300,12.13683837890625,-0.186737060546875,-0.9785919189453125,-0.0053558349609375
1773251357671874300,12.146874267578125,-0.1858062744140625,-0.979888916015625,-0.0047607421875
1773251357681911600,12.15691162109375,-0.188629150390625,-0.980072021484375,-0.0040740966796875
1773251357691947500,12.166947509765626,-0.1907501220703125,-0.9819488525390625,-0.0087738037109375
1773251357701983500,12.1769833984375,-0.190582275390625,-0.9799957275390625,-0.01055908203125
1773251357712020500,12.1870205078125,-0.18817138671875,-0.979339599609375,-0.00823974609375
1773251357722056400,12.197056396484374,-0.1895599365234375,-0.9796295166015625,-0.0061798095703125
1773251357732092400,12.207092529296874,-0.1920623779296875,-0.9783782958984375,-0.0064544677734375
1773251357742128400,12.21712841796875,-0.1913604736328125,-0.9784393310546875,-0.0046844482421875
1773251357752165400,12.227165283203124,-0.1916656494140625,-0.977783203125,-0.0032958984375
1773251357762201300,12.237201416015624,-0.1909942626953125,-0.9786224365234375,-0.003509521484375
1773251357772237300,12.2472373046875,-0.188690185546875,-0.977325439453125,-0.0029144287109375
1773251357782274600,12.257274658203125,-0.1886444091796875,-0.9775238037109375,-0.004150390625
1773251357792310500,12.267310546875,-0.189544677734375,-0.98040771484375,-0.0047454833984375
1773251357802346500,12.277346435546875,-0.190399169921875,-0.9804840087890625,-0.0052032470703125
1773251357812383500,12.287383544921875,-0.190185546875,-0.980712890625,-0.0017242431640625
1773251357822419500,12.29741943359375,-0.189788818359375,-0.9790802001953125,0.0003509521484375
1773251357832455400,12.307455322265625,-0.19073486328125,-0.9782257080078125,-0.001251220703125
1773251357842491400,12.317491455078125,-0.191680908203125,-0.977783203125,-0.0009613037109375
1773251357852528400,12.3275283203125,-0.194122314453125,-0.9783172607421875,-0.00238037109375
1773251357862564400,12.337564453125,-0.1955413818359375,-0.9781646728515625,-0.0037384033203125
1773251357872600300,12.347600341796875,-0.1964874267578125,-0.97845458984375,-0.0059356689453125
1773251357882637600,12.357637451171875,-0.1936187744140625,-0.979522705078125,-0.0069427490234375
1773251357892673500,12.367673583984375,-0.1930999755859375,-0.9806060791015625,-0.004302978515625
1773251357902709500,12.37770947265625,-0.1936187744140625,-0.9815673828125,-0.003936767578125
1773251357912746500,12.38774658203125,-0.19464111328125,-0.9819793701171875,-0.0031890869140625
1773251357922782500,12.397782470703126,-0.19598388671875,-0.9817657470703125,-0.002410888671875
1773251357932818400,12.407818359375,-0.1997222900390625,-0.9804229736328125,-0.0025787353515625
1773251357942854400,12.4178544921875,-0.200592041015625,-0.9790191650390625,-0.006439208984375
1773251357952891400,12.427891357421874,-0.202301025390625,-0.976287841796875,-0.008392333984375
1773251357962927400,12.43792724609375,-0.2032318115234375,-0.975921630859375,-0.0083465576171875
1773251357972963300,12.44796337890625,-0.20166015625,-0.97613525390625,-0.0056915283203125
1773251357983000300,12.458000244140624,-0.1996917724609375,-0.97467041015625,-0.0046844482421875
1773251357993036500,12.46803662109375,-0.1979522705078125,-0.9735107421875,-0.0037078857421875
1773251358003072500,12.478072509765624,-0.197998046875,-0.9743194580078125,-0.0032196044921875
1773251358013109500,12.488109619140625,-0.19512939453125,-0.9741058349609375,-0.004547119140625
1773251358023145500,12.4981455078125,-0.198272705078125,-0.9751129150390625,-0.005584716796875
1773251358033181400,12.508181396484375,-0.2010040283203125,-0.975555419921875,-0.006866455078125
1773251358043218400,12.518218505859375,-0.2048187255859375,-0.976715087890625,-0.00787353515625
1773251358053254400,12.52825439453125,-0.20654296875,-0.9757843017578125,-0.0091705322265625
1773251358063290400,12.538290283203125,-0.2055816650390625,-0.978271484375,-0.008270263671875
1773251358073326300,12.548326416015625,-0.204132080078125,-0.9793853759765625,-0.0077667236328125
1773251358083363300,12.55836328125,-0.20184326171875,-0.9786834716796875,-0.006561279296875
1773251358093399300,12.5683994140625,-0.203460693359375,-0.9785003662109375,-0.0046844482421875
1773251358103435300,12.578435302734375,-0.2047271728515625,-0.97821044921875,-0.005279541015625
1773251358113472500,12.588472412109375,-0.2044525146484375,-0.98004150390625,-0.00457763671875
1773251358123508500,12.598508544921875,-0.200897216796875,-0.9803314208984375,-0.009307861328125
1773251358133544400,12.60854443359375,-0.2057647705078125,-0.9741973876953125,-0.000640869140625
1773251358143580400,12.618580322265625,-0.2117767333984375,-0.97503662109375,0.001068115234375
1773251358153617400,12.628617431640626,-0.21551513671875,-0.973907470703125,-0.008880615234375
1773251358163653400,12.6386533203125,-0.2156524658203125,-0.974517822265625,-0.0084991455078125
1773251358173689300,12.648689453125,-0.2127685546875,-0.9733734130859375,-0.0045318603515625
1773251358183726300,12.658726318359374,-0.2088165283203125,-0.9737548828125,-0.0027313232421875
1773251358193762300,12.66876220703125,-0.211029052734375,-0.97308349609375,-0.0016021728515625
1773251358203798300,12.67879833984375,-0.2138519287109375,-0.9736328125,0.000640869140625
1773251358213835500,12.68883544921875,-0.2164764404296875,-0.97552490234375,0.001190185546875
1773251358223871500,12.69887158203125,-0.217254638671875,-0.9750518798828125,0.0001068115234375
1773251358233907500,12.708907470703124,-0.2151336669921875,-0.97503662109375,-0.0018463134765625
1773251358243943400,12.718943359375,-0.2138671875,-0.9752197265625,-0.003875732421875
1773251358253980400,12.72898046875,-0.2121429443359375,-0.97509765625,-0.0042724609375
1773251358264016600,12.7390166015625,-0.212799072265625,-0.9737091064453125,-0.001922607421875
1773251358274052600,12.749052490234375,-0.212554931640625,-0.9743804931640625,-0.0008087158203125
1773251358284089600,12.759089599609375,-0.2140045166015625,-0.97515869140625,-0.000701904296875
1773251358294125600,12.76912548828125,-0.2142181396484375,-0.9749755859375,-0.0012054443359375
1773251358304161500,12.77916162109375,-0.213653564453125,-0.9759979248046875,-0.00634765625
1773251358314198500,12.789198486328125,-0.21453857421875,-0.9769134521484375,-0.00726318359375
1773251358324234500,12.799234375,-0.217437744140625,-0.97662353515625,-0.0057373046875
1773251358334270500,12.8092705078125,-0.2176971435546875,-0.9775390625,-0.00299072265625
1773251358344306400,12.819306396484375,-0.2174224853515625,-0.977874755859375,-0.0024566650390625
1773251358354343400,12.829343505859375,-0.2169952392578125,-0.9754486083984375,0.0009002685546875
1773251358364379400,12.83937939453125,-0.2185211181640625,-0.975677490234375,-0.0005035400390625
1773251358374415400,12.849415283203125,-0.219451904296875,-0.9774932861328125,-0.00146484375
