time,seconds_elapsed,z,y,x
1773251782262676700,0.0576767578125,-0.97918701171875,-0.62860107421875,0.0719146728515625
1773251782272714000,0.0677138671875,-1.0069122314453125,-0.6458587646484375,0.0772552490234375
1773251782282750700,0.077750732421875,-1.0075836181640625,-0.645599365234375,0.0615997314453125
1773251782292787700,0.08778759765625,-0.9516143798828125,-0.68798828125,0.0301055908203125
1773251782302825700,0.09782568359375,-0.8859710693359375,-0.7210235595703125,-0.0102081298828125
1773251782312863000,0.107863037109375,-0.91351318359375,-0.694183349609375,-0.027008056640625
1773251782322899700,0.117899658203125,-0.880157470703125,-0.6390228271484375,-0.039764404296875
1773251782332936700,0.127936767578125,-0.834320068359375,-0.621002197265625,-0.0357818603515625
1773251782342973700,0.1379736328125,-0.8038482666015625,-0.63323974609375,-0.079193115234375
1773251782353012000,0.148011962890625,-0.772247314453125,-0.646270751953125,-0.1063232421875
1773251782363048700,0.158048583984375,-0.734832763671875,-0.64520263671875,-0.0828857421875
1773251782373085700,0.168085693359375,-0.691650390625,-0.6568756103515625,-0.077972412109375
1773251782383122700,0.178122802734375,-0.6438140869140625,-0.6844482421875,-0.068389892578125
1773251782393160700,0.18816064453125,-0.6059417724609375,-0.7158355712890625,-0.066253662109375
1773251782403197700,0.19819775390625,-0.5655670166015625,-0.7263641357421875,-0.104827880859375
1773251782413234700,0.208234619140625,-0.520111083984375,-0.69940185546875,-0.1416168212890625
1773251782423272000,0.21827197265625,-0.472930908203125,-0.669708251953125,-0.14886474609375
1773251782433309700,0.228309814453125,-0.45941162109375,-0.660919189453125,-0.1473388671875
1773251782443346700,0.2383466796875,-0.4661712646484375,-0.6649017333984375,-0.1586761474609375
1773251782453383700,0.2483837890625,-0.45697021484375,-0.6643829345703125,-0.14013671875
1773251782463421000,0.2584208984375,-0.4467010498046875,-0.6837921142578125,-0.0969085693359375
1773251782473458700,0.268458740234375,-0.4478607177734375,-0.7378387451171875,-0.0619354248046875
1773251782483495700,0.27849560546875,-0.451690673828125,-0.7987518310546875,-0.0351409912109375
1773251782493533000,0.288532958984375,-0.463653564453125,-0.8464508056640625,0.00115966796875
1773251782503570000,0.29856982421875,-0.43280029296875,-0.8782806396484375,0.0563201904296875
1773251782513607000,0.30860693359375,-0.3636016845703125,-0.9189910888671875,0.0723419189453125
1773251782523644700,0.318644775390625,-0.2899932861328125,-0.9464874267578125,0.07208251953125
1773251782533682000,0.328681884765625,-0.22137451171875,-0.9557952880859375,0.109161376953125
1773251782543719000,0.338718994140625,-0.158233642578125,-0.9611358642578125,0.129241943359375
1773251782553755600,0.348755615234375,-0.1134033203125,-0.9572906494140625,0.117034912109375
1773251782563794000,0.3587939453125,-0.0840911865234375,-0.9368743896484375,0.140899658203125
1773251782573831000,0.368830810546875,-0.0460357666015625,-0.9354095458984375,0.1671142578125
1773251782583868000,0.378867919921875,0.000701904296875,-0.9428863525390625,0.1477508544921875
1773251782593904600,0.388904541015625,0.01715087890625,-0.931884765625,0.1447601318359375
1773251782603943000,0.39894287109375,0.04144287109375,-0.9391326904296875,0.152374267578125
1773251782613980000,0.40897998046875,0.067840576171875,-0.9754180908203125,0.1386260986328125
1773251782624016600,0.4190166015625,0.0501556396484375,-0.978118896484375,0.1142730712890625
1773251782634053600,0.4290537109375,0.0234375,-0.95306396484375,0.1159515380859375
1773251782644092000,0.439091796875,0.0352325439453125,-0.940673828125,0.135528564453125
1773251782654129000,0.44912890625,0.0496368408203125,-0.9369964599609375,0.1429290771484375
1773251782664165600,0.45916552734375,0.076202392578125,-0.9305419921875,0.1244964599609375
1773251782674202600,0.46920263671875,0.1484375,-0.9088287353515625,0.1376953125
1773251782684241400,0.479241455078125,0.2317352294921875,-0.8982086181640625,0.169830322265625
1773251782694278400,0.4892783203125,0.3404388427734375,-0.9154510498046875,0.196502685546875
1773251782704315400,0.4993154296875,0.452850341796875,-0.939300537109375,0.2420501708984375
1773251782714352600,0.5093525390625,0.5594482421875,-0.9736480712890625,0.292633056640625
1773251782724390400,0.519390380859375,0.560089111328125,-0.9914093017578125,0.363067626953125
1773251782734427400,0.529427490234375,0.3823394775390625,-0.9312744140625,0.392791748046875
1773251782744464600,0.539464599609375,0.2074737548828125,-0.92181396484375,0.3171234130859375
1773251782754501600,0.549501708984375,0.1112518310546875,-0.942413330078125,0.159698486328125
1773251782764538600,0.55953857421875,0.0315704345703125,-0.9521636962890625,0.03619384765625
1773251782774576400,0.569576416015625,-0.0147857666015625,-0.9639892578125,-0.0280303955078125
1773251782784613600,0.579613525390625,0.0153961181640625,-0.97674560546875,-0.0643157958984375
1773251782794650600,0.589650634765625,0.060546875,-0.974090576171875,-0.079742431640625
1773251782804687600,0.5996875,0.1201019287109375,-0.9300994873046875,-0.029052734375
1773251782814725600,0.6097255859375,0.3263702392578125,-0.8866119384765625,0.1146240234375
1773251782824762600,0.6197626953125,0.4244537353515625,-0.8755950927734375,0.212738037109375
1773251782834799600,0.629799560546875,0.345672607421875,-0.847900390625,0.269287109375
1773251782844836400,0.63983642578125,0.2055511474609375,-0.880950927734375,0.3118438720703125
1773251782854874600,0.64987451171875,0.1757965087890625,-0.833160400390625,0.464263916015625
1773251782864911600,0.65991162109375,0.1939544677734375,-0.8492889404296875,0.4813232421875
1773251782874948600,0.669948486328125,0.2065887451171875,-1.0397491455078125,0.1619110107421875
1773251782884985300,0.6799853515625,0.209747314453125,-1.11126708984375,0.00830078125
1773251782895023600,0.690023681640625,0.1674652099609375,-1.09136962890625,-0.0150146484375
1773251782905060600,0.700060546875,0.178314208984375,-1.03350830078125,0.0281829833984375
1773251782915097600,0.71009765625,0.1575469970703125,-0.98809814453125,0.0731201171875
1773251782925134300,0.72013427734375,0.1103973388671875,-0.9565582275390625,0.126251220703125
1773251782935172600,0.730172607421875,0.0336761474609375,-0.966796875,0.1586151123046875
1773251782945209600,0.740209716796875,-0.0231170654296875,-1.0168914794921875,0.1468505859375
1773251782955246300,0.750246337890625,-0.015045166015625,-1.0482177734375,0.1493377685546875
1773251782965283600,0.76028369140625,0.0653228759765625,-1.046478271484375,0.1988677978515625
1773251782975320600,0.770320556640625,0.1909332275390625,-1.0340576171875,0.2744598388671875
1773251782985358600,0.780358642578125,0.2873687744140625,-1.0286712646484375,0.3259429931640625
1773251782995395300,0.790395263671875,0.2906494140625,-1.007232666015625,0.3111114501953125
1773251783005432600,0.8004326171875,0.2215118408203125,-0.9897003173828125,0.252105712890625
1773251783015469600,0.810469482421875,0.14703369140625,-0.9812469482421875,0.2063751220703125
1773251783025507300,0.82050732421875,0.1037139892578125,-0.9734344482421875,0.1885986328125
1773251783035544600,0.830544677734375,0.100341796875,-0.9674835205078125,0.1771697998046875
1773251783045581600,0.84058154296875,0.11834716796875,-0.9652862548828125,0.1557769775390625
1773251783055618600,0.85061865234375,0.140411376953125,-0.974365234375,0.1254730224609375
1773251783065656300,0.86065625,0.14886474609375,-0.9813995361328125,0.1081695556640625
1773251783075693600,0.870693603515625,0.162322998046875,-0.984771728515625,0.101287841796875
1773251783085730600,0.88073046875,0.1769256591796875,-0.966644287109375,0.109405517578125
1773251783095767600,0.890767578125,0.1821136474609375,-0.94189453125,0.127288818359375
1773251783105805600,0.9008056640625,0.178558349609375,-0.9257354736328125,0.1402435302734375
1773251783115842600,0.910842529296875,0.18756103515625,-0.9207305908203125,0.132720947265625
1773251783125879600,0.920879638671875,0.1856231689453125,-0.928497314453125,0.1313323974609375
1773251783135916500,0.93091650390625,0.174957275390625,-0.947723388671875,0.1084747314453125
1773251783145954600,0.94095458984375,0.16583251953125,-0.96563720703125,0.0780792236328125
1773251783155991600,0.950991455078125,0.166748046875,-0.98223876953125,0.058685302734375
1773251783166028500,0.961028564453125,0.1843109130859375,-0.9848175048828125,0.047943115234375
1773251783176065500,0.9710654296875,0.2203521728515625,-0.98297119140625,0.0430908203125
1773251783186103600,0.981103515625,0.2464141845703125,-0.980072021484375,0.0488433837890625
1773251783196140500,0.991140625,0.246429443359375,-0.97900390625,0.0542144775390625
1773251783206177500,1.001177490234375,0.22552490234375,-0.98040771484375,0.0468597412109375
1773251783216214500,1.011214599609375,0.2010650634765625,-0.984161376953125,0.0342254638671875
1773251783226251500,1.02125146484375,0.172882080078125,-0.98687744140625,-0.00250244140625
1773251783236289500,1.03128955078125,0.1594696044921875,-0.9599456787109375,-0.00787353515625
1773251783246326500,1.041326416015625,0.141357421875,-0.9270477294921875,-0.013671875
1773251783256363500,1.051363525390625,0.134246826171875,-0.9153289794921875,-0.017822265625
1773251783266400500,1.061400390625,0.1630859375,-0.9235076904296875,-0.008056640625
1773251783276438500,1.0714384765625,0.2009429931640625,-0.920806884765625,0.00164794921875
1773251783286475500,1.0814755859375,0.2111358642578125,-0.9566497802734375,0.0521697998046875
1773251783296512500,1.091512451171875,0.2057647705078125,-1.018402099609375,0.1061859130859375
1773251783306549500,1.101549560546875,0.2020721435546875,-1.0088348388671875,0.121826171875
1773251783316587500,1.11158740234375,0.123199462890625,-1.033966064453125,0.153594970703125
1773251783326624500,1.12162451171875,0.07672119140625,-1.033538818359375,0.196685791015625
1773251783336661500,1.13166162109375,0.05865478515625,-1.023345947265625,0.243988037109375
1773251783346698500,1.141698486328125,0.0569305419921875,-1.008880615234375,0.2659912109375
1773251783356736500,1.151736572265625,0.063262939453125,-0.9864959716796875,0.2673797607421875
1773251783366773500,1.1617734375,0.078094482421875,-0.9739837646484375,0.247344970703125
1773251783376810500,1.171810546875,0.0760498046875,-0.9688873291015625,0.2208251953125
1773251783386847500,1.181847412109375,0.0579986572265625,-0.973419189453125,0.19317626953125
1773251783396885800,1.1918857421875,0.0377960205078125,-0.981689453125,0.1612548828125
1773251783406922500,1.201922607421875,0.0284881591796875,-0.988067626953125,0.1339263916015625
1773251783416959500,1.21195947265625,0.03424072265625,-1.0050811767578125,0.129638671875
1773251783426996500,1.22199658203125,0.0343475341796875,-1.018096923828125,0.1388397216796875
1773251783437034500,1.232034423828125,0.01434326171875,-1,0.1465911865234375
1773251783447071500,1.242071533203125,-0.0037078857421875,-0.9732208251953125,0.134857177734375
1773251783457108500,1.2521083984375,0.0103759765625,-0.96502685546875,0.1158599853515625
1773251783467145500,1.2621455078125,0.032928466796875,-0.974212646484375,0.1135406494140625
1773251783477182700,1.2721826171875,0.044281005859375,-0.9918975830078125,0.12249755859375
1773251783487220500,1.282220458984375,0.056640625,-1.0101470947265625,0.1154022216796875
1773251783497257500,1.292257568359375,0.0620269775390625,-1.01361083984375,0.1110687255859375
1773251783507294500,1.30229443359375,0.046661376953125,-1.010101318359375,0.1199493408203125
1773251783517331700,1.312331787109375,0.026031494140625,-1.0025482177734375,0.1346588134765625
1773251783527369500,1.322369384765625,0.0191497802734375,-0.994537353515625,0.1499786376953125
1773251783537406500,1.332406494140625,0.03802490234375,-0.9892578125,0.1669158935546875
1773251783547443700,1.342443603515625,0.0641937255859375,-0.9910125732421875,0.1746978759765625
1773251783557480400,1.35248046875,0.056549072265625,-0.9947967529296875,0.1678619384765625
1773251783567518500,1.3625185546875,0.0423736572265625,-0.99560546875,0.154876708984375
1773251783577555500,1.372555419921875,0.0587005615234375,-0.9909210205078125,0.145599365234375
1773251783587592700,1.3825927734375,0.085052490234375,-0.9875335693359375,0.1526641845703125
1773251783597629400,1.39262939453125,0.0871734619140625,-0.986297607421875,0.156524658203125
1773251783607667500,1.40266748046875,0.0706787109375,-0.9779052734375,0.1691741943359375
1773251783617704700,1.41270458984375,0.0479736328125,-0.970458984375,0.1748199462890625
1773251783627741700,1.42274169921875,0.0475921630859375,-0.9764404296875,0.1640472412109375
1773251783637778400,1.4327783203125,0.0668182373046875,-0.97991943359375,0.151092529296875
1773251783647816400,1.44281640625,0.083892822265625,-0.9841461181640625,0.1429595947265625
1773251783657853700,1.452853759765625,0.08514404296875,-0.989288330078125,0.139892578125
1773251783667890400,1.462890380859375,0.0667877197265625,-0.9807586669921875,0.1381988525390625
1773251783677927400,1.472927490234375,0.0502166748046875,-0.9703216552734375,0.13446044921875
1773251783687964400,1.48296435546875,0.0456390380859375,-0.9654083251953125,0.13201904296875
1773251783698002400,1.49300244140625,0.0472564697265625,-0.970977783203125,0.136444091796875
1773251783708039400,1.503039306640625,0.047882080078125,-0.9808807373046875,0.1360931396484375
1773251783718076400,1.513076416015625,0.0461883544921875,-0.9834442138671875,0.136444091796875
1773251783728113400,1.523113525390625,0.0727081298828125,-0.9857940673828125,0.1428375244140625
1773251783738151400,1.5331513671875,0.0885772705078125,-0.9924774169921875,0.1396331787109375
1773251783748188400,1.5431884765625,0.0666656494140625,-0.99053955078125,0.134246826171875
1773251783758225400,1.553225341796875,0.0546875,-0.9915618896484375,0.139801025390625
1773251783768262400,1.563262451171875,0.0665435791015625,-0.9921722412109375,0.147552490234375
1773251783778300400,1.573300537109375,0.0790863037109375,-0.987518310546875,0.1488189697265625
1773251783788337400,1.58333740234375,0.0843658447265625,-0.981292724609375,0.157562255859375
1773251783798374400,1.59337451171875,0.07550048828125,-0.977386474609375,0.15582275390625
1773251783808411400,1.603411376953125,0.06829833984375,-0.9774932861328125,0.152740478515625
1773251783818449400,1.613449462890625,0.072052001953125,-0.9753265380859375,0.15301513671875
1773251783828486400,1.623486328125,0.0784454345703125,-0.980438232421875,0.15155029296875
1773251783838523400,1.6335234375,0.0727691650390625,-0.9872589111328125,0.148162841796875
1773251783848560400,1.643560302734375,0.0670928955078125,-0.984283447265625,0.1549224853515625
1773251783858598400,1.653598388671875,0.06414794921875,-0.982025146484375,0.157196044921875
1773251783868635400,1.663635498046875,0.0708770751953125,-0.9870147705078125,0.1492767333984375
1773251783878672400,1.67367236328125,0.0905303955078125,-0.9860992431640625,0.141754150390625
1773251783888709400,1.68370947265625,0.1078948974609375,-0.983612060546875,0.1424102783203125
1773251783898747400,1.693747314453125,0.1098175048828125,-0.9831085205078125,0.141143798828125
1773251783908784400,1.703784423828125,0.0999603271484375,-0.98370361328125,0.1413726806640625
1773251783918821400,1.7138212890625,0.086273193359375,-0.9913787841796875,0.14495849609375
1773251783928858600,1.723858642578125,0.0724029541015625,-0.9998016357421875,0.14996337890625
1773251783938895400,1.733895263671875,0.06793212890625,-0.9967193603515625,0.154144287109375
1773251783948933400,1.743933349609375,0.0706787109375,-1.0003662109375,0.147552490234375
1773251783958970400,1.753970458984375,0.0745697021484375,-1.002685546875,0.1379852294921875
1773251783969007600,1.764007568359375,0.08270263671875,-0.996063232421875,0.1340484619140625
1773251783979044400,1.77404443359375,0.090362548828125,-0.9828033447265625,0.137786865234375
1773251783989082400,1.784082275390625,0.096893310546875,-0.974639892578125,0.140594482421875
1773251783999119600,1.79411962890625,0.0928802490234375,-0.975494384765625,0.1374969482421875
1773251784009156400,1.80415625,0.0893096923828125,-0.976806640625,0.13763427734375
1773251784019193300,1.814193359375,0.091033935546875,-0.9851837158203125,0.147247314453125
1773251784029231400,1.8242314453125,0.092620849609375,-0.99444580078125,0.15069580078125
1773251784039268600,1.8342685546875,0.091705322265625,-0.9928741455078125,0.1489105224609375
1773251784049305300,1.844305419921875,0.0950164794921875,-0.98883056640625,0.148162841796875
1773251784059342300,1.85434228515625,0.1042938232421875,-0.98260498046875,0.1480865478515625
1773251784069380600,1.864380615234375,0.1001434326171875,-0.97760009765625,0.1418304443359375
1773251784079417300,1.874417236328125,0.0862579345703125,-0.9750823974609375,0.1313934326171875
1773251784089454300,1.884454345703125,0.080596923828125,-0.9754791259765625,0.1433258056640625
1773251784099491300,1.8944912109375,0.0813751220703125,-0.97662353515625,0.15234375
1773251784109529600,1.904529541015625,0.0838623046875,-0.9738616943359375,0.1474456787109375
1773251784119566300,1.91456640625,0.087158203125,-0.9767608642578125,0.1441802978515625
1773251784129603300,1.924603271484375,0.0938720703125,-0.9818572998046875,0.144134521484375
1773251784139640300,1.934640380859375,0.0951385498046875,-0.980621337890625,0.144744873046875
1773251784149678600,1.9446787109375,0.098358154296875,-0.98052978515625,0.1425018310546875
1773251784159715300,1.95471533203125,0.0982818603515625,-0.9810333251953125,0.1392669677734375
1773251784169752300,1.96475244140625,0.0967254638671875,-0.9840850830078125,0.14581298828125
1773251784179789300,1.974789306640625,0.09271240234375,-0.9893951416015625,0.1490325927734375
1773251784189827300,1.984827392578125,0.090118408203125,-0.99078369140625,0.1456756591796875
1773251784199864300,1.9948642578125,0.0887298583984375,-0.989013671875,0.143707275390625
1773251784209901300,2.0049013671875,0.091796875,-0.9879913330078125,0.1459197998046875
1773251784219938600,2.0149384765625,0.10009765625,-0.98681640625,0.142425537109375
1773251784229975600,2.0249755859375,0.1064453125,-0.9864654541015625,0.1400604248046875
1773251784240013300,2.035013427734375,0.10626220703125,-0.9860382080078125,0.139251708984375
1773251784250050300,2.04505029296875,0.1046600341796875,-0.9884033203125,0.1458892822265625
1773251784260087600,2.055087646484375,0.0961456298828125,-0.990264892578125,0.149810791015625
1773251784270124500,2.06512451171875,0.0689849853515625,-0.990020751953125,0.1533203125
1773251784280162300,2.075162353515625,0.05419921875,-0.9853057861328125,0.1574859619140625
1773251784290199600,2.085199462890625,0.083526611328125,-0.9847869873046875,0.157470703125
1773251784300236500,2.095236572265625,0.13128662109375,-0.9874725341796875,0.1517333984375
1773251784310273500,2.1052734375,0.12872314453125,-0.9826202392578125,0.1461181640625
1773251784320311300,2.115311279296875,0.1094512939453125,-0.9827880859375,0.1457061767578125
1773251784330348500,2.1253486328125,0.0777435302734375,-0.9793548583984375,0.142822265625
1773251784340385500,2.135385498046875,0.074249267578125,-0.9696807861328125,0.1514434814453125
1773251784350422300,2.14542236328125,0.1030426025390625,-0.96673583984375,0.1605072021484375
1773251784360460500,2.15546044921875,0.1344146728515625,-0.9727935791015625,0.1575927734375
1773251784370497500,2.16549755859375,0.1403961181640625,-0.9780731201171875,0.151947021484375
1773251784380534500,2.175534423828125,0.1160430908203125,-0.9807891845703125,0.144622802734375
1773251784390571300,2.1855712890625,0.0887298583984375,-0.9827117919921875,0.1440582275390625
1773251784400609500,2.195609619140625,0.0857086181640625,-0.9858551025390625,0.147491455078125
1773251784410646500,2.205646484375,0.0999908447265625,-0.99163818359375,0.1510772705078125
1773251784420683300,2.215683349609375,0.1058349609375,-0.984283447265625,0.1501312255859375
1773251784430720300,2.22572021484375,0.1031951904296875,-0.9760894775390625,0.1396636962890625
1773251784440758500,2.235758544921875,0.0957489013671875,-0.9722747802734375,0.1381683349609375
1773251784450795500,2.24579541015625,0.0915985107421875,-0.9711761474609375,0.147247314453125
1773251784460832300,2.255832275390625,0.0975799560546875,-0.9725799560546875,0.15093994140625
1773251784470869200,2.265869140625,0.1067352294921875,-0.9821014404296875,0.153167724609375
1773251784480906500,2.275906494140625,0.10675048828125,-0.9883880615234375,0.1532745361328125
1773251784490944500,2.285944580078125,0.10162353515625,-0.989776611328125,0.1549072265625
1773251784500981200,2.295981201171875,0.1024169921875,-0.985198974609375,0.1554107666015625
1773251784511018500,2.3060185546875,0.1019134521484375,-0.9785003662109375,0.160125732421875
1773251784521055500,2.316055419921875,0.1031036376953125,-0.979766845703125,0.1627655029296875
1773251784531093200,2.32609326171875,0.105865478515625,-0.98065185546875,0.1632080078125
1773251784541130200,2.336130126953125,0.095855712890625,-0.981719970703125,0.158050537109375
1773251784551167500,2.34616748046875,0.101043701171875,-0.983612060546875,0.160369873046875
1773251784561204500,2.35620458984375,0.1130523681640625,-0.9826202392578125,0.155242919921875
1773251784571242200,2.3662421875,0.087188720703125,-0.9740447998046875,0.150970458984375
1773251784581279500,2.376279541015625,0.084869384765625,-0.964080810546875,0.1603851318359375
1773251784591316500,2.38631640625,0.111358642578125,-0.96466064453125,0.1659698486328125
1773251784601353500,2.396353515625,0.1337738037109375,-0.9645538330078125,0.163909912109375
1773251784611391200,2.40639111328125,0.1288604736328125,-0.9628448486328125,0.1556854248046875
1773251784621428500,2.416428466796875,0.1073150634765625,-0.9677581787109375,0.14776611328125
1773251784631465500,2.426465576171875,0.0956573486328125,-0.972564697265625,0.148681640625
1773251784641502500,2.43650244140625,0.104400634765625,-0.9792938232421875,0.1540374755859375
1773251784651540500,2.44654052734375,0.111846923828125,-0.9796142578125,0.156463623046875
1773251784661577500,2.456577392578125,0.1066131591796875,-0.980804443359375,0.1563568115234375
1773251784671614500,2.466614501953125,0.096221923828125,-0.978729248046875,0.15576171875
1773251784681651500,2.4766513671875,0.096710205078125,-0.978607177734375,0.1520538330078125
1773251784691689000,2.48668896484375,0.098846435546875,-0.9771270751953125,0.1527252197265625
1773251784701726000,2.496725830078125,0.1010589599609375,-0.973358154296875,0.156280517578125
1773251784711763200,2.50676318359375,0.1041717529296875,-0.978179931640625,0.157012939453125
1773251784721800200,2.51680029296875,0.1050872802734375,-0.985107421875,0.155914306640625
1773251784731838000,2.526837890625,0.10546875,-0.9887847900390625,0.1604766845703125
1773251784741875200,2.536875244140625,0.106414794921875,-0.9877166748046875,0.168121337890625
1773251784751912200,2.546912109375,0.1050567626953125,-0.9888153076171875,0.170166015625
1773251784761949200,2.55694921875,0.1026153564453125,-0.98980712890625,0.1690826416015625
1773251784771986000,2.56698583984375,0.1010894775390625,-0.9850311279296875,0.1683349609375
1773251784782024200,2.577024169921875,0.1045074462890625,-0.98101806640625,0.167205810546875
1773251784792061200,2.587061279296875,0.1082305908203125,-0.978851318359375,0.162872314453125
1773251784802098000,2.597097900390625,0.10858154296875,-0.979248046875,0.1623077392578125
1773251784812135000,2.607135009765625,0.104248046875,-0.9801788330078125,0.16961669921875
1773251784822173200,2.617173095703125,0.097869873046875,-0.9813690185546875,0.175811767578125
1773251784832210200,2.627210205078125,0.095428466796875,-0.978607177734375,0.1758880615234375
1773251784842247000,2.637246826171875,0.098297119140625,-0.9769134521484375,0.1786956787109375
1773251784852284200,2.6472841796875,0.0980682373046875,-0.977294921875,0.1763763427734375
1773251784862322200,2.657322265625,0.0966796875,-0.9737548828125,0.174285888671875
1773251784872359000,2.66735888671875,0.1026611328125,-0.9715423583984375,0.17718505859375
1773251784882396000,2.67739599609375,0.10394287109375,-0.97369384765625,0.180084228515625
1773251784892433200,2.68743310546875,0.1016998291015625,-0.9732666015625,0.17779541015625
1773251784902471200,2.69747119140625,0.1019439697265625,-0.977569580078125,0.1741943359375
1773251784912508000,2.7075078125,0.1018218994140625,-0.9843597412109375,0.169219970703125
1773251784922545000,2.717544921875,0.1006927490234375,-0.9822235107421875,0.1683197021484375
1773251784932582100,2.72758203125,0.1011962890625,-0.978546142578125,0.1707305908203125
1773251784942620200,2.7376201171875,0.103759765625,-0.974822998046875,0.1719207763671875
1773251784952657000,2.747656982421875,0.1068267822265625,-0.971893310546875,0.1744232177734375
1773251784962694100,2.757694091796875,0.1093902587890625,-0.9758758544921875,0.171783447265625
1773251784972731100,2.767731201171875,0.1061248779296875,-0.9814300537109375,0.172210693359375
1773251784982768000,2.77776806640625,0.1041412353515625,-0.9853668212890625,0.167755126953125
1773251784992806000,2.787805908203125,0.105804443359375,-0.985260009765625,0.1603546142578125
1773251785002843100,2.797843017578125,0.1065673828125,-0.98223876953125,0.1638641357421875
1773251785012880100,2.807880126953125,0.1055908203125,-0.9789276123046875,0.1706085205078125
1773251785022918000,2.81791796875,0.107940673828125,-0.9796600341796875,0.1737823486328125
1773251785032955100,2.827955078125,0.12115478515625,-0.9818115234375,0.1751556396484375
1773251785042992000,2.8379921875,0.1211395263671875,-0.98089599609375,0.1712799072265625
1773251785053029000,2.848029052734375,0.0886993408203125,-0.9810638427734375,0.165008544921875
1773251785063066000,2.858066162109375,0.0776824951171875,-0.978302001953125,0.1705169677734375
1773251785073104100,2.868104248046875,0.1075439453125,-0.978668212890625,0.176605224609375
1773251785083141000,2.87814111328125,0.14385986328125,-0.9827117919921875,0.1668853759765625
1773251785093178000,2.88817822265625,0.1267547607421875,-0.9779510498046875,0.1600189208984375
1773251785103215000,2.898215087890625,0.1116790771484375,-0.9681243896484375,0.167816162109375
1773251785113253000,2.908253173828125,0.0938262939453125,-0.9668426513671875,0.171875
1773251785123290000,2.9182900390625,0.0882110595703125,-0.964813232421875,0.172882080078125
1773251785133327000,2.9283271484375,0.1012420654296875,-0.9728851318359375,0.1714630126953125
1773251785143364000,2.938364013671875,0.12408447265625,-0.977813720703125,0.1681365966796875
1773251785153402000,2.948402099609375,0.139678955078125,-0.97686767578125,0.16290283203125
1773251785163439000,2.958439208984375,0.1259002685546875,-0.97381591796875,0.1588592529296875
1773251785173476000,2.96847607421875,0.097442626953125,-0.9738006591796875,0.165679931640625
1773251785183513000,2.97851318359375,0.0946197509765625,-0.9764404296875,0.1746978759765625
1773251785193551000,2.988551025390625,0.115203857421875,-0.981414794921875,0.1769561767578125
1773251785203588000,2.998588134765625,0.12982177734375,-0.983367919921875,0.1668701171875
1773251785213625000,3.008625,0.123199462890625,-0.982879638671875,0.158416748046875
1773251785223662000,3.018662109375,0.1013946533203125,-0.9803314208984375,0.158782958984375
1773251785233700000,3.0287001953125,0.0835723876953125,-0.9744110107421875,0.1585235595703125
1773251785243737000,3.038737060546875,0.086883544921875,-0.9720306396484375,0.1566619873046875
1773251785253774000,3.048774169921875,0.1007080078125,-0.9701385498046875,0.1583709716796875
1773251785263811000,3.05881103515625,0.1056976318359375,-0.9710540771484375,0.161224365234375
1773251785273849000,3.06884912109375,0.0980987548828125,-0.9763336181640625,0.161865234375
1773251785283886000,3.078885986328125,0.09356689453125,-0.982177734375,0.1565093994140625
1773251785293923000,3.088923095703125,0.10235595703125,-0.9881439208984375,0.1548614501953125
1773251785303960000,3.0989599609375,0.114044189453125,-0.99224853515625,0.1543121337890625
1773251785313997000,3.1089970703125,0.1166839599609375,-0.9949951171875,0.14801025390625
1773251785324035000,3.11903515625,0.11395263671875,-0.99176025390625,0.1441192626953125
1773251785334072000,3.129072021484375,0.10955810546875,-0.9857330322265625,0.1443634033203125
1773251785344109000,3.139109130859375,0.1020660400390625,-0.9810333251953125,0.148529052734375
1773251785354146000,3.14914599609375,0.11566162109375,-0.9815216064453125,0.1529083251953125
1773251785364184000,3.15918408203125,0.1071014404296875,-0.9782257080078125,0.1454010009765625
1773251785374221000,3.169220947265625,0.08038330078125,-0.975067138671875,0.1394805908203125
1773251785384258000,3.179258056640625,0.079742431640625,-0.975189208984375,0.145660400390625
1773251785394295000,3.189294921875,0.0921173095703125,-0.9787750244140625,0.1493072509765625
1773251785404333000,3.1993330078125,0.09942626953125,-0.984161376953125,0.1486053466796875
1773251785414370000,3.2093701171875,0.102813720703125,-0.98828125,0.14202880859375
1773251785424407000,3.219406982421875,0.1051177978515625,-0.989044189453125,0.1376495361328125
1773251785434444300,3.2294443359375,0.1072235107421875,-0.988861083984375,0.135162353515625
1773251785444482000,3.23948193359375,0.11077880859375,-0.987640380859375,0.12646484375
1773251785454519000,3.24951904296875,0.1110992431640625,-0.986083984375,0.1218109130859375
1773251785464556000,3.25955615234375,0.103515625,-0.984771728515625,0.1211700439453125
1773251785474593300,3.26959326171875,0.0950927734375,-0.9831390380859375,0.12542724609375
1773251785484631000,3.279631103515625,0.09344482421875,-0.9839019775390625,0.129058837890625
1773251785494668000,3.28966796875,0.09503173828125,-0.98394775390625,0.132659912109375
1773251785504705300,3.299705322265625,0.0997161865234375,-0.9826507568359375,0.1341094970703125
1773251785514742000,3.309741943359375,0.1013641357421875,-0.9833526611328125,0.1344146728515625
1773251785524780000,3.319780029296875,0.099395751953125,-0.98126220703125,0.13714599609375
1773251785534817000,3.329817138671875,0.0966644287109375,-0.9772186279296875,0.1412506103515625
1773251785544854300,3.339854248046875,0.092437744140625,-0.975799560546875,0.13983154296875
1773251785554891000,3.34989111328125,0.0900421142578125,-0.9788055419921875,0.1397705078125
1773251785564929000,3.359928955078125,0.084991455078125,-0.978668212890625,0.14776611328125
1773251785574966300,3.36996630859375,0.0803375244140625,-0.9805755615234375,0.154815673828125
1773251785585003300,3.380003173828125,0.080657958984375,-0.986297607421875,0.1576995849609375
1773251785595040000,3.3900400390625,0.0827484130859375,-0.9945831298828125,0.1529693603515625
1773251785605078000,3.400078125,0.0887298583984375,-0.996826171875,0.1427764892578125
1773251785615115300,3.410115234375,0.0901641845703125,-0.9908294677734375,0.1412200927734375
1773251785625152000,3.420152099609375,0.09429931640625,-0.9859619140625,0.145050048828125
1773251785635189000,3.43018896484375,0.09698486328125,-0.982025146484375,0.1472320556640625
1773251785645227000,3.44022705078125,0.093505859375,-0.9753875732421875,0.1467132568359375
1773251785655264300,3.45026416015625,0.087738037109375,-0.97039794921875,0.150634765625
1773251785665301000,3.460301025390625,0.0855865478515625,-0.9730377197265625,0.1548614501953125
1773251785675338000,3.470337890625,0.08697509765625,-0.97900390625,0.1562347412109375
1773251785685375000,3.480375,0.0854949951171875,-0.9869537353515625,0.1517333984375
1773251785695413000,3.4904130859375,0.0815582275390625,-0.9937744140625,0.147125244140625
1773251785705449700,3.50044970703125,0.0840301513671875,-0.994842529296875,0.1449737548828125
1773251785715487000,3.510487060546875,0.08795166015625,-0.9886932373046875,0.146087646484375
1773251785725524000,3.52052392578125,0.0854644775390625,-0.9849700927734375,0.143798828125
1773251785735561700,3.530561767578125,0.0849456787109375,-0.9827117919921875,0.142059326171875
1773251785745598700,3.5405986328125,0.08349609375,-0.9809112548828125,0.1412353515625
1773251785755636000,3.550635986328125,0.083099365234375,-0.979583740234375,0.1412200927734375
1773251785765673000,3.5606728515625,0.0848388671875,-0.9823760986328125,0.13812255859375
1773251785775710700,3.570710693359375,0.0842742919921875,-0.986846923828125,0.13433837890625
1773251785785748000,3.580748046875,0.081878662109375,-0.98468017578125,0.137298583984375
1773251785795785000,3.590784912109375,0.083343505859375,-0.98162841796875,0.142333984375
1773251785805822000,3.600822021484375,0.0878143310546875,-0.9816436767578125,0.1443023681640625
1773251785815859700,3.610859619140625,0.0904998779296875,-0.9873809814453125,0.1482086181640625
1773251785825897000,3.62089697265625,0.0885009765625,-0.99151611328125,0.152587890625
1773251785835934000,3.630933837890625,0.089752197265625,-0.990447998046875,0.154296875
1773251785845971000,3.640970947265625,0.09033203125,-0.9903717041015625,0.149932861328125
1773251785856009000,3.651009033203125,0.09527587890625,-0.99017333984375,0.1458282470703125
1773251785866046000,3.6610458984375,0.1047515869140625,-0.9901275634765625,0.143157958984375
1773251785876083000,3.6710830078125,0.085906982421875,-0.986236572265625,0.142303466796875
1773251785886120000,3.681119873046875,0.0808563232421875,-0.985931396484375,0.1527252197265625
1773251785896158000,3.691157958984375,0.0841064453125,-0.9877777099609375,0.16119384765625
1773251785906195000,3.70119482421875,0.0677947998046875,-0.9857330322265625,0.1643829345703125
1773251785916232000,3.71123193359375,0.07635498046875,-0.98272705078125,0.1697998046875
1773251785926269000,3.72126904296875,0.1009521484375,-0.987548828125,0.1583404541015625
1773251785936307000,3.731306884765625,0.096282958984375,-0.9832305908203125,0.1487579345703125
1773251785946344000,3.741343994140625,0.0732269287109375,-0.9748077392578125,0.1503448486328125
1773251785956381000,3.751380859375,0.0727691650390625,-0.9700164794921875,0.15411376953125
1773251785966417700,3.761417724609375,0.0931396484375,-0.96923828125,0.1588134765625
1773251785976456000,3.7714560546875,0.11181640625,-0.9759368896484375,0.1563873291015625
1773251785986493000,3.781492919921875,0.1030731201171875,-0.98406982421875,0.1508026123046875
1773251785996530000,3.791530029296875,0.0828857421875,-0.986175537109375,0.157073974609375
1773251786006567000,3.80156689453125,0.0813446044921875,-0.9861602783203125,0.162445068359375
1773251786016605000,3.81160498046875,0.101776123046875,-0.9848175048828125,0.1591644287109375
1773251786026642000,3.821641845703125,0.1160736083984375,-0.98101806640625,0.1501922607421875
1773251786036679000,3.831678955078125,0.1032257080078125,-0.9781951904296875,0.1438751220703125
1773251786046716000,3.8417158203125,0.0794219970703125,-0.977996826171875,0.1437835693359375
1773251786056754000,3.85175390625,0.064361572265625,-0.98193359375,0.1484832763671875
1773251786066791000,3.861791015625,0.0713043212890625,-0.981231689453125,0.155364990234375
1773251786076828000,3.871827880859375,0.0831298828125,-0.982086181640625,0.1629486083984375
1773251786086865000,3.881864990234375,0.0927581787109375,-0.98687744140625,0.1655731201171875
1773251786096902000,3.89190185546875,0.0944061279296875,-0.987884521484375,0.1685028076171875
1773251786106940000,3.90193994140625,0.09033203125,-0.98870849609375,0.1696624755859375
1773251786116977000,3.911976806640625,0.0898895263671875,-0.98602294921875,0.1717376708984375
1773251786127014000,3.922013916015625,0.09197998046875,-0.982452392578125,0.1685333251953125
1773251786137051000,3.93205078125,0.09466552734375,-0.976898193359375,0.164947509765625
1773251786147089000,3.9420888671875,0.0962371826171875,-0.9774627685546875,0.1617431640625
1773251786157126000,3.9521259765625,0.0963287353515625,-0.9781494140625,0.1576995849609375
1773251786167163000,3.962162841796875,0.0857391357421875,-0.975616455078125,0.1602020263671875
1773251786177199900,3.972199951171875,0.0826416015625,-0.977630615234375,0.1669158935546875
1773251786187238000,3.98223779296875,0.0996551513671875,-0.980865478515625,0.1656646728515625
1773251786197275000,3.99227490234375,0.087310791015625,-0.978271484375,0.157562255859375
1773251786207312000,4.002311767578125,0.07159423828125,-0.9759521484375,0.1636962890625
1773251786217348900,4.012348876953125,0.0827484130859375,-0.97869873046875,0.1681671142578125
1773251786227387000,4.022386962890625,0.1018524169921875,-0.97906494140625,0.1615753173828125
1773251786237423900,4.032423828125,0.1090545654296875,-0.978363037109375,0.155029296875
1773251786247460900,4.0424609375,0.1045989990234375,-0.97906494140625,0.1487579345703125
1773251786257498000,4.052498046875,0.101593017578125,-0.982147216796875,0.1526031494140625
1773251786267536000,4.062535888671875,0.1067352294921875,-0.9861297607421875,0.15667724609375
1773251786277572900,4.07257275390625,0.1033935546875,-0.989105224609375,0.1580657958984375
1773251786287609900,4.08260986328125,0.0973358154296875,-0.9876251220703125,0.161102294921875
1773251786297647000,4.092647216796875,0.0944976806640625,-0.987335205078125,0.159576416015625
1773251786307684900,4.102684814453125,0.0948028564453125,-0.9841766357421875,0.15557861328125
1773251786317721900,4.112721923828125,0.097686767578125,-0.983489990234375,0.15460205078125
1773251786327758800,4.1227587890625,0.0943450927734375,-0.9850616455078125,0.1579437255859375
1773251786337796000,4.132796142578125,0.0897064208984375,-0.987213134765625,0.1542816162109375
1773251786347833900,4.142833740234375,0.0923614501953125,-0.9914398193359375,0.15423583984375
1773251786357870800,4.152870849609375,0.09918212890625,-0.9857940673828125,0.156890869140625
1773251786367908000,4.162908203125,0.1021728515625,-0.9833526611328125,0.1593475341796875
1773251786377944800,4.17294482421875,0.09869384765625,-0.981658935546875,0.1623992919921875
1773251786387982800,4.18298291015625,0.100799560546875,-0.9813690185546875,0.1593170166015625
1773251786398019800,4.193019775390625,0.099609375,-0.9853668212890625,0.1558074951171875
1773251786408057000,4.20305712890625,0.1016693115234375,-0.9829864501953125,0.155364990234375
1773251786418093800,4.21309375,0.1065216064453125,-0.981109619140625,0.15679931640625
1773251786428131800,4.2231318359375,0.1029815673828125,-0.9842681884765625,0.1531982421875
1773251786438169000,4.233169189453125,0.0953521728515625,-0.9794464111328125,0.149169921875
1773251786448205800,4.243205810546875,0.092010498046875,-0.9738311767578125,0.152374267578125
1773251786458242800,4.253242919921875,0.0947723388671875,-0.97003173828125,0.1566009521484375
1773251786468280800,4.26328076171875,0.1009674072265625,-0.9726409912109375,0.15777587890625
1773251786478318000,4.273318115234375,0.1065216064453125,-0.97357177734375,0.152496337890625
1773251786488354800,4.283354736328125,0.109161376953125,-0.9727325439453125,0.149688720703125
1773251786498391800,4.293391845703125,0.10882568359375,-0.972198486328125,0.1481781005859375
1773251786508430000,4.30343017578125,0.103790283203125,-0.9745941162109375,0.1494598388671875
1773251786518467000,4.313467041015625,0.0987091064453125,-0.97711181640625,0.1545867919921875
1773251786528503800,4.32350390625,0.094329833984375,-0.979248046875,0.1584930419921875
1773251786538540800,4.333540771484375,0.093292236328125,-0.9824981689453125,0.15972900390625
1773251786548579000,4.3435791015625,0.098419189453125,-0.98291015625,0.153778076171875
1773251786558615800,4.35361572265625,0.1104888916015625,-0.9806060791015625,0.15399169921875
1773251786568652800,4.36365283203125,0.11016845703125,-0.9833526611328125,0.1558990478515625
1773251786578689800,4.373689697265625,0.1007232666015625,-0.986663818359375,0.15045166015625
1773251786588728000,4.38372802734375,0.089111328125,-0.987945556640625,0.150299072265625
1773251786598764800,4.393764892578125,0.0865020751953125,-0.984954833984375,0.1544189453125
1773251786608801800,4.4038017578125,0.0873565673828125,-0.9822235107421875,0.16033935546875
1773251786618839000,4.413839111328125,0.08880615234375,-0.984100341796875,0.1623992919921875
1773251786628876800,4.423876708984375,0.09173583984375,-0.9873046875,0.164520263671875
1773251786638913800,4.433913818359375,0.0924530029296875,-0.992095947265625,0.158966064453125
1773251786648950800,4.44395068359375,0.0926055908203125,-0.9905242919921875,0.1509857177734375
1773251786658988000,4.453988037109375,0.0930938720703125,-0.986663818359375,0.14788818359375
1773251786669025800,4.46402587890625,0.08978271484375,-0.986358642578125,0.14373779296875
1773251786679062800,4.474062744140625,0.088653564453125,-0.9858245849609375,0.1436004638671875
1773251786689100800,4.484100830078125,0.0887908935546875,-0.9857635498046875,0.15093994140625
1773251786699138000,4.494137939453125,0.0907135009765625,-0.9846343994140625,0.1576080322265625
1773251786709174800,4.5041748046875,0.0961151123046875,-0.98406982421875,0.1576385498046875
1773251786719212800,4.514212890625,0.10626220703125,-0.9868621826171875,0.1510162353515625
1773251786729249800,4.524249755859375,0.0931396484375,-0.9866790771484375,0.143798828125
1773251786739286800,4.534286865234375,0.059783935546875,-0.982208251953125,0.1436767578125
1773251786749323800,4.54432373046875,0.0650787353515625,-0.98272705078125,0.1519012451171875
1773251786759361800,4.55436181640625,0.0963897705078125,-0.984466552734375,0.150726318359375
1773251786769399000,4.56439892578125,0.10772705078125,-0.985107421875,0.143768310546875
1773251786779435800,4.574435791015625,0.1075897216796875,-0.9815826416015625,0.1443023681640625
1773251786789472800,4.58447265625,0.10040283203125,-0.980438232421875,0.1434478759765625
1773251786799510800,4.5945107421875,0.07220458984375,-0.971099853515625,0.146209716796875
1773251786809547800,4.6045478515625,0.06768798828125,-0.9633636474609375,0.152191162109375
1773251786819584800,4.614584716796875,0.0914154052734375,-0.9654541015625,0.151519775390625
1773251786829621800,4.624621826171875,0.113006591796875,-0.97100830078125,0.1462860107421875
1773251786839660000,4.634659912109375,0.1063690185546875,-0.9719390869140625,0.1392364501953125
1773251786849696800,4.64469677734375,0.0784912109375,-0.973968505859375,0.13848876953125
1773251786859733800,4.654733642578125,0.0703582763671875,-0.980010986328125,0.149169921875
1773251786869770800,4.664770751953125,0.0866546630859375,-0.9802703857421875,0.1602020263671875
1773251786879809000,4.67480908203125,0.0990142822265625,-0.97967529296875,0.1600494384765625
1773251786889845800,4.684845703125,0.0933685302734375,-0.978179931640625,0.1528167724609375
1773251786899882800,4.6948828125,0.0759124755859375,-0.9749908447265625,0.1456756591796875
1773251786909919700,4.704919677734375,0.0701141357421875,-0.9779815673828125,0.1439971923828125
1773251786919957800,4.714957763671875,0.0791015625,-0.98345947265625,0.1451416015625
1773251786929994800,4.724994873046875,0.0885162353515625,-0.9817047119140625,0.143524169921875
1773251786940031700,4.73503173828125,0.0919952392578125,-0.982208251953125,0.1457977294921875
1773251786950068700,4.74506884765625,0.093994140625,-0.9811859130859375,0.1477813720703125
1773251786960106800,4.755106689453125,0.088348388671875,-0.9821929931640625,0.1514129638671875
1773251786970143700,4.765143798828125,0.0804595947265625,-0.9858856201171875,0.152313232421875
1773251786980180700,4.7751806640625,0.08050537109375,-0.986358642578125,0.15057373046875
1773251786990218000,4.785218017578125,0.083465576171875,-0.9858856201171875,0.1494140625
1773251787000255700,4.795255859375,0.085113525390625,-0.9859619140625,0.1473236083984375
1773251787010292700,4.805292724609375,0.0880126953125,-0.9856414794921875,0.1436920166015625
1773251787020329700,4.815329833984375,0.08038330078125,-0.98583984375,0.147369384765625
1773251787030367000,4.825366943359375,0.08551025390625,-0.9879150390625,0.1532745361328125
1773251787040404700,4.83540478515625,0.1062469482421875,-0.995941162109375,0.1497039794921875
1773251787050441700,4.845441650390625,0.084075927734375,-0.9951019287109375,0.1433258056640625
1773251787060479000,4.85547900390625,0.0641021728515625,-0.988677978515625,0.1475372314453125
1773251787070516000,4.865515869140625,0.07037353515625,-0.9850616455078125,0.1512603759765625
1773251787080553700,4.8755537109375,0.08367919921875,-0.9915924072265625,0.147064208984375
1773251787090590700,4.8855908203125,0.08184814453125,-0.990692138671875,0.1421966552734375
1773251787100628000,4.8956279296875,0.076324462890625,-0.983306884765625,0.1481781005859375
1773251787110665000,4.9056650390625,0.07733154296875,-0.980133056640625,0.157501220703125
1773251787120702700,4.91570263671875,0.0900726318359375,-0.977996826171875,0.1595916748046875
1773251787130740000,4.925739990234375,0.0948944091796875,-0.982208251953125,0.1562347412109375
1773251787140777000,4.93577685546875,0.085113525390625,-0.9891815185546875,0.1521453857421875
1773251787150813700,4.945813720703125,0.07525634765625,-0.98968505859375,0.1472015380859375
1773251787160851700,4.955851806640625,0.0764312744140625,-0.9808807373046875,0.150543212890625
1773251787170889000,4.965888916015625,0.08099365234375,-0.9778594970703125,0.15667724609375
1773251787180926000,4.975926025390625,0.0809783935546875,-0.9732513427734375,0.153839111328125
1773251787190962700,4.985962646484375,0.0834503173828125,-0.970428466796875,0.1515350341796875
1773251787201001000,4.9960009765625,0.0877838134765625,-0.971099853515625,0.152740478515625
1773251787211038000,5.006037841796875,0.0909881591796875,-0.9771728515625,0.1492919921875
1773251787221075000,5.016074951171875,0.0920257568359375,-0.9805450439453125,0.148681640625
1773251787231111700,5.026111572265625,0.088531494140625,-0.9832763671875,0.1490020751953125
1773251787241150000,5.03614990234375,0.083282470703125,-0.98590087890625,0.1484527587890625
1773251787251187000,5.04618701171875,0.0822296142578125,-0.9863739013671875,0.1491241455078125
1773251787261223700,5.0562236328125,0.0822906494140625,-0.9846649169921875,0.1520233154296875
1773251787271260700,5.0662607421875,0.07952880859375,-0.981536865234375,0.1536865234375
1773251787281299000,5.076298828125,0.08013916015625,-0.9822998046875,0.1567535400390625
1773251787291336000,5.0863359375,0.0823516845703125,-0.984375,0.156524658203125
1773251787301372700,5.09637255859375,0.082427978515625,-0.9887237548828125,0.1576690673828125
1773251787311409700,5.10640966796875,0.081451416015625,-0.9953765869140625,0.1584625244140625
1773251787321448000,5.116447998046875,0.0850982666015625,-0.993621826171875,0.1565093994140625
1773251787331484700,5.126484619140625,0.0898590087890625,-0.9903564453125,0.15570068359375
1773251787341521700,5.136521728515625,0.095733642578125,-0.98492431640625,0.157379150390625
1773251787351559000,5.146558837890625,0.092681884765625,-0.9810943603515625,0.152679443359375
1773251787361597000,5.156596923828125,0.08880615234375,-0.9776763916015625,0.1508026123046875
1773251787371633700,5.166633544921875,0.08221435546875,-0.9748382568359375,0.1584930419921875
1773251787381670700,5.176670654296875,0.0804290771484375,-0.975616455078125,0.162506103515625
1773251787391708000,5.1867080078125,0.0767974853515625,-0.9773406982421875,0.1598358154296875
1773251787401746000,5.196745849609375,0.0843505859375,-0.97784423828125,0.1580810546875
1773251787411782700,5.20678271484375,0.09173583984375,-0.97998046875,0.1559906005859375
1773251787421820000,5.21681982421875,0.094451904296875,-0.980560302734375,0.15765380859375
1773251787431857000,5.22685693359375,0.095245361328125,-0.98138427734375,0.1583251953125
1773251787441894700,5.236894775390625,0.0872955322265625,-0.9788360595703125,0.1591796875
1773251787451931600,5.246931640625,0.085540771484375,-0.9778900146484375,0.157989501953125
1773251787461969000,5.256968994140625,0.094512939453125,-0.9791412353515625,0.158966064453125
1773251787472006000,5.267005859375,0.0988922119140625,-0.9826812744140625,0.1620941162109375
1773251787482043600,5.277043701171875,0.096405029296875,-0.9828338623046875,0.1600189208984375
1773251787492081000,5.287080810546875,0.092742919921875,-0.983245849609375,0.158355712890625
1773251787502118000,5.297117919921875,0.0936431884765625,-0.9815826416015625,0.1566925048828125
1773251787512155000,5.30715478515625,0.09393310546875,-0.9819793701171875,0.1575775146484375
1773251787522192600,5.317192626953125,0.096343994140625,-0.9821624755859375,0.161529541015625
1773251787532230000,5.32722998046875,0.0968170166015625,-0.983306884765625,0.15704345703125
1773251787542267000,5.337266845703125,0.09661865234375,-0.9868927001953125,0.1490936279296875
1773251787552303900,5.347303955078125,0.102386474609375,-0.9878692626953125,0.1475677490234375
1773251787562342000,5.357341796875,0.1062164306640625,-0.988189697265625,0.15069580078125
1773251787572379000,5.36737890625,0.108245849609375,-0.9881134033203125,0.1474761962890625
1773251787582416000,5.377415771484375,0.088348388671875,-0.9865875244140625,0.1464385986328125
1773251787592452900,5.387452880859375,0.068328857421875,-0.9855194091796875,0.1540679931640625
1773251787602491000,5.397490966796875,0.08441162109375,-0.9839019775390625,0.1626739501953125
1773251787612527900,5.40752783203125,0.0892333984375,-0.9780120849609375,0.158416748046875
1773251787622564900,5.41756494140625,0.0816802978515625,-0.9733734130859375,0.1584014892578125
1773251787632601900,5.427601806640625,0.0987396240234375,-0.973724365234375,0.1561431884765625
1773251787642640000,5.437639892578125,0.1034088134765625,-0.975616455078125,0.14971923828125
1773251787652676900,5.4476767578125,0.0853271484375,-0.9690399169921875,0.1501922607421875
1773251787662713900,5.4577138671875,0.07427978515625,-0.9624481201171875,0.1559295654296875
1773251787672750600,5.46775048828125,0.0871734619140625,-0.9679412841796875,0.16168212890625
1773251787682788900,5.477788818359375,0.1103057861328125,-0.976654052734375,0.1582489013671875
1773251787692825300,5.487825439453125,0.11798095703125,-0.9834442138671875,0.15155029296875
1773251787702862600,5.497862548828125,0.09552001953125,-0.9839935302734375,0.151275634765625
1773251787712899300,5.5078994140625,0.078033447265625,-0.9804534912109375,0.1578826904296875
1773251787722937300,5.517937255859375,0.084442138671875,-0.9846954345703125,0.1622161865234375
1773251787732974300,5.527974365234375,0.097625732421875,-0.989532470703125,0.160308837890625
1773251787743011600,5.538011474609375,0.10272216796875,-0.988189697265625,0.152740478515625
1773251787753048300,5.54804833984375,0.0883026123046875,-0.987640380859375,0.1492767333984375
1773251787763086300,5.55808642578125,0.07110595703125,-0.98870849609375,0.14898681640625
1773251787773123600,5.56812353515625,0.0706787109375,-0.988983154296875,0.1493072509765625
1773251787783160600,5.57816064453125,0.0818939208984375,-0.9865264892578125,0.151519775390625
1773251787793197300,5.588197265625,0.0901336669921875,-0.983489990234375,0.1544952392578125
1773251787803235300,5.5982353515625,0.090576171875,-0.978790283203125,0.1527099609375
1773251787813272600,5.6082724609375,0.0850982666015625,-0.98443603515625,0.1533203125
1773251787823309300,5.618309326171875,0.0834503173828125,-0.990478515625,0.151947021484375
1773251787833346300,5.62834619140625,0.083099365234375,-0.993316650390625,0.1497039794921875
1773251787843384600,5.638384521484375,0.08367919921875,-0.99029541015625,0.1502227783203125
1773251787853421600,5.648421630859375,0.0814666748046875,-0.98504638671875,0.1512603759765625
1773251787863458300,5.658458251953125,0.0814971923828125,-0.9777984619140625,0.146881103515625
1773251787873495300,5.668495361328125,0.0858001708984375,-0.9734039306640625,0.145355224609375
1773251787883533600,5.678533447265625,0.0810699462890625,-0.973052978515625,0.14910888671875
1773251787893570300,5.6885703125,0.0748138427734375,-0.979644775390625,0.151641845703125
1773251787903607300,5.698607177734375,0.0894775390625,-0.986541748046875,0.151641845703125
1773251787913644300,5.708644287109375,0.0812835693359375,-0.989593505859375,0.1439971923828125
1773251787923682600,5.7186826171875,0.0633697509765625,-0.988861083984375,0.1471099853515625
1773251787933719300,5.72871923828125,0.068206787109375,-0.9849090576171875,0.1473541259765625
1773251787943756300,5.73875634765625,0.08966064453125,-0.9820404052734375,0.144195556640625
1773251787953793500,5.74879345703125,0.1000823974609375,-0.9816131591796875,0.1443939208984375
1773251787963831600,5.75883154296875,0.0855255126953125,-0.981109619140625,0.1446380615234375
1773251787973868300,5.768868408203125,0.0726470947265625,-0.9822540283203125,0.150543212890625
1773251787983905300,5.7789052734375,0.0760650634765625,-0.982025146484375,0.15350341796875
1773251787993942500,5.788942626953125,0.081451416015625,-0.9875946044921875,0.1498870849609375
1773251788003980300,5.798980224609375,0.0791015625,-0.9917755126953125,0.1458587646484375
1773251788014017300,5.809017333984375,0.073760986328125,-0.9925537109375,0.1465911865234375
1773251788024054500,5.819054443359375,0.0731964111328125,-0.98931884765625,0.1463165283203125
1773251788034091500,5.829091552734375,0.0733489990234375,-0.9904327392578125,0.1459808349609375
1773251788044129300,5.83912939453125,0.0754547119140625,-0.9901123046875,0.148681640625
1773251788054166300,5.849166259765625,0.0824737548828125,-0.9817352294921875,0.1511383056640625
1773251788064203500,5.85920361328125,0.08734130859375,-0.97747802734375,0.151519775390625
1773251788074240500,5.869240478515625,0.085479736328125,-0.9775238037109375,0.1491546630859375
1773251788084278300,5.8792783203125,0.0815887451171875,-0.9796295166015625,0.1470184326171875
1773251788094315300,5.889315185546875,0.0777130126953125,-0.985870361328125,0.1450958251953125
1773251788104352500,5.8993525390625,0.0705718994140625,-0.989288330078125,0.141876220703125
1773251788114389500,5.909389404296875,0.071990966796875,-0.984619140625,0.1456298828125
1773251788124427300,5.91942724609375,0.0782470703125,-0.9847259521484375,0.1490936279296875
1773251788134464500,5.929464599609375,0.0813140869140625,-0.9814910888671875,0.1478424072265625
1773251788144501500,5.93950146484375,0.082916259765625,-0.978973388671875,0.145050048828125
1773251788154538500,5.94953857421875,0.0818939208984375,-0.9762725830078125,0.144989013671875
1773251788164576300,5.959576171875,0.0780792236328125,-0.979217529296875,0.1445770263671875
1773251788174613500,5.969613525390625,0.0773468017578125,-0.9868316650390625,0.14227294921875
1773251788184650500,5.979650390625,0.071868896484375,-0.99224853515625,0.1388397216796875
1773251788194687500,5.9896875,0.0720672607421875,-0.9920501708984375,0.1422576904296875
1773251788204725500,5.9997255859375,0.076141357421875,-0.9884185791015625,0.1413421630859375
1773251788214762500,6.009762451171875,0.0794219970703125,-0.984954833984375,0.13958740234375
1773251788224799500,6.019799560546875,0.0788726806640625,-0.9818572998046875,0.1431427001953125
1773251788234836200,6.029836181640625,0.0740203857421875,-0.9815826416015625,0.1432037353515625
1773251788244874500,6.03987451171875,0.06817626953125,-0.98211669921875,0.1411590576171875
1773251788254911500,6.049911376953125,0.067626953125,-0.9785308837890625,0.1431427001953125
1773251788264948500,6.059948486328125,0.0717620849609375,-0.977081298828125,0.1502838134765625
1773251788274985200,6.069985107421875,0.0775909423828125,-0.9825897216796875,0.1511383056640625
1773251788285023500,6.0800234375,0.075439453125,-0.98577880859375,0.152191162109375
1773251788295060500,6.090060546875,0.0743865966796875,-0.9818115234375,0.152496337890625
1773251788305097200,6.10009716796875,0.075653076171875,-0.98065185546875,0.15386962890625
1773251788315134500,6.110134521484375,0.0786285400390625,-0.98101806640625,0.1510467529296875
1773251788325172500,6.12017236328125,0.07769775390625,-0.9816436767578125,0.150390625
1773251788335209500,6.13020947265625,0.0733642578125,-0.9831390380859375,0.1518402099609375
1773251788345246200,6.14024609375,0.0706787109375,-0.9832763671875,0.1535797119140625
1773251788355283500,6.150283447265625,0.07476806640625,-0.9830780029296875,0.1544647216796875
1773251788365321500,6.160321533203125,0.0718994140625,-0.9836578369140625,0.1612091064453125
1773251788375358500,6.1703583984375,0.0659027099609375,-0.9831085205078125,0.16473388671875
1773251788385395500,6.1803955078125,0.0672760009765625,-0.9845123291015625,0.1588287353515625
1773251788395432400,6.190432373046875,0.07244873046875,-0.9842987060546875,0.1567840576171875
1773251788405470500,6.200470458984375,0.0714569091796875,-0.9826202392578125,0.159881591796875
1773251788415507200,6.210507080078125,0.0716705322265625,-0.9816436767578125,0.1598968505859375
1773251788425544400,6.22054443359375,0.0767669677734375,-0.986297607421875,0.149322509765625
1773251788435581400,6.23058154296875,0.082305908203125,-0.9847869873046875,0.148773193359375
1773251788445619500,6.240619384765625,0.07781982421875,-0.9812774658203125,0.161285400390625
1773251788455656200,6.25065625,0.070465087890625,-0.98541259765625,0.1663818359375
1773251788465693400,6.260693359375,0.071868896484375,-0.9888916015625,0.166168212890625
1773251788475730400,6.27073046875,0.0728912353515625,-0.99456787109375,0.1635589599609375
1773251788485768200,6.280768310546875,0.07623291015625,-0.99639892578125,0.1579437255859375
1773251788495805400,6.290805419921875,0.0777130126953125,-0.9926605224609375,0.153533935546875
1773251788505842400,6.300842529296875,0.0615081787109375,-0.9864959716796875,0.1527557373046875
1773251788515879400,6.31087939453125,0.0695343017578125,-0.983184814453125,0.162139892578125
1773251788525917200,6.320917236328125,0.0735321044921875,-0.9802398681640625,0.1624298095703125
1773251788535954400,6.330954345703125,0.05657958984375,-0.976593017578125,0.1628875732421875
1773251788545991400,6.340991455078125,0.06842041015625,-0.9789886474609375,0.1669769287109375
1773251788556028400,6.3510283203125,0.091064453125,-0.9829864501953125,0.1587982177734375
1773251788566066400,6.36106640625,0.0768890380859375,-0.9819793701171875,0.158477783203125
1773251788576103400,6.371103515625,0.0512237548828125,-0.9761199951171875,0.1644287109375
1773251788586140400,6.381140380859375,0.0516510009765625,-0.9773101806640625,0.168701171875
1773251788596177400,6.391177490234375,0.0792999267578125,-0.981292724609375,0.1694488525390625
1773251788606215400,6.40121533203125,0.0949249267578125,-0.982421875,0.167205810546875
1773251788616252400,6.41125244140625,0.0759735107421875,-0.98028564453125,0.1661529541015625
1773251788626289400,6.421289306640625,0.05303955078125,-0.9794158935546875,0.1653289794921875
1773251788636326400,6.431326416015625,0.0526885986328125,-0.984954833984375,0.1647491455078125
1773251788646364400,6.441364501953125,0.0700531005859375,-0.9882049560546875,0.1590576171875
1773251788656401400,6.4514013671875,0.0804443359375,-0.9839630126953125,0.15179443359375
1773251788666438400,6.4614384765625,0.070526123046875,-0.9813385009765625,0.152862548828125
1773251788676475600,6.4714755859375,0.05731201171875,-0.9778594970703125,0.157073974609375
1773251788686513400,6.481513427734375,0.0543365478515625,-0.9779205322265625,0.1586761474609375
1773251788696549400,6.49154931640625,0.0625152587890625,-0.982269287109375,0.15606689453125
1773251788706586600,6.501586669921875,0.0667266845703125,-0.9837188720703125,0.1594085693359375
1773251788716623600,6.51162353515625,0.06353759765625,-0.988861083984375,0.1635894775390625
1773251788726661400,6.521661376953125,0.0606231689453125,-0.990478515625,0.1606597900390625
1773251788736698600,6.53169873046875,0.0629730224609375,-0.98773193359375,0.158477783203125
1773251788746735600,6.541735595703125,0.062835693359375,-0.9861297607421875,0.1565399169921875
1773251788756772600,6.551772705078125,0.0625457763671875,-0.98480224609375,0.152069091796875
1773251788766810400,6.561810302734375,0.0615234375,-0.98388671875,0.151519775390625
1773251788776847600,6.57184765625,0.061279296875,-0.9790802001953125,0.1532135009765625
1773251788786884600,6.581884521484375,0.0637054443359375,-0.98126220703125,0.15460205078125
1773251788796921600,6.591921630859375,0.062957763671875,-0.98455810546875,0.15008544921875
1773251788806959600,6.601959716796875,0.06036376953125,-0.98822021484375,0.1490020751953125
1773251788816996600,6.61199658203125,0.0747528076171875,-0.9889068603515625,0.14959716796875
1773251788827033600,6.62203369140625,0.0678863525390625,-0.989166259765625,0.1444244384765625
1773251788837070600,6.632070556640625,0.05010986328125,-0.9860382080078125,0.14923095703125
1773251788847108600,6.642108642578125,0.0525665283203125,-0.9870147705078125,0.1623382568359375
1773251788857145600,6.6521455078125,0.067352294921875,-0.989898681640625,0.157867431640625
1773251788867182600,6.6621826171875,0.075653076171875,-0.9910430908203125,0.15081787109375
1773251788877219300,6.67221923828125,0.0680389404296875,-0.9901275634765625,0.1504974365234375
1773251788887257600,6.682257568359375,0.0620574951171875,-0.9885711669921875,0.1531982421875
1773251788897294600,6.692294677734375,0.06878662109375,-0.9874267578125,0.1506500244140625
1773251788907331600,6.70233154296875,0.0737457275390625,-0.987701416015625,0.144805908203125
1773251788917368600,6.71236865234375,0.0714874267578125,-0.9873504638671875,0.1443328857421875
1773251788927406600,6.722406494140625,0.064178466796875,-0.9875640869140625,0.1469879150390625
1773251788937443600,6.732443603515625,0.06072998046875,-0.990234375,0.1460723876953125
1773251788947480300,6.742480224609375,0.065887451171875,-0.98565673828125,0.14849853515625
1773251788957517600,6.752517578125,0.0719757080078125,-0.983001708984375,0.1519317626953125
1773251788967555600,6.7625556640625,0.072540283203125,-0.984130859375,0.149383544921875
1773251788977592600,6.772592529296875,0.0660552978515625,-0.9882659912109375,0.1478118896484375
1773251788987629300,6.78262939453125,0.06134033203125,-0.9883270263671875,0.148193359375
1773251788997666600,6.79266650390625,0.0638580322265625,-0.98468017578125,0.149810791015625
1773251789007704600,6.80270458984375,0.0729827880859375,-0.9841156005859375,0.146759033203125
1773251789017741600,6.812741455078125,0.0756378173828125,-0.9838104248046875,0.145294189453125
1773251789027778600,6.822778564453125,0.074188232421875,-0.9840240478515625,0.1430206298828125
1773251789037815600,6.832815673828125,0.07073974609375,-0.9858245849609375,0.1429595947265625
1773251789047853600,6.842853515625,0.066253662109375,-0.9864044189453125,0.141937255859375
1773251789057890300,6.852890380859375,0.0659027099609375,-0.98431396484375,0.1413116455078125
1773251789067927600,6.862927490234375,0.066864013671875,-0.9894256591796875,0.140716552734375
1773251789077965600,6.872965576171875,0.0694580078125,-0.9927978515625,0.137664794921875
1773251789088002600,6.88300244140625,0.07171630859375,-0.993255615234375,0.1378173828125
1773251789098039600,6.89303955078125,0.0733642578125,-0.9905853271484375,0.140228271484375
1773251789108076500,6.90307666015625,0.0726318359375,-0.9864959716796875,0.13916015625
1773251789118113500,6.913113525390625,0.0760955810546875,-0.9849090576171875,0.1398773193359375
1773251789128151300,6.9231513671875,0.0769500732421875,-0.983642578125,0.1387786865234375
1773251789138188500,6.9331884765625,0.076019287109375,-0.986175537109375,0.1375732421875
1773251789148225500,6.9432255859375,0.0724029541015625,-0.98583984375,0.133941650390625
1773251789158263600,6.953263671875,0.072052001953125,-0.9866943359375,0.1370391845703125
1773251789168300500,6.963300537109375,0.075225830078125,-0.98333740234375,0.142242431640625
1773251789178337500,6.973337646484375,0.0780029296875,-0.9849853515625,0.1432952880859375
1773251789188374500,6.98337451171875,0.081695556640625,-0.98577880859375,0.1436767578125
1773251789198412500,6.99341259765625,0.07843017578125,-0.98602294921875,0.143524169921875
1773251789208449500,7.003449462890625,0.0738372802734375,-0.9848480224609375,0.1440277099609375
1773251789218486500,7.013486572265625,0.0793304443359375,-0.98394775390625,0.1408538818359375
1773251789228523500,7.0235234375,0.0844879150390625,-0.9837493896484375,0.1394195556640625
1773251789238561500,7.0335615234375,0.0827484130859375,-0.98223876953125,0.139068603515625
1773251789248598500,7.0435986328125,0.078094482421875,-0.9794921875,0.139434814453125
1773251789258635500,7.053635498046875,0.080657958984375,-0.977203369140625,0.1401519775390625
1773251789268672500,7.063672607421875,0.0830230712890625,-0.9784088134765625,0.141632080078125
1773251789278710500,7.07371044921875,0.0829315185546875,-0.982330322265625,0.1417388916015625
1773251789288747500,7.08374755859375,0.0788116455078125,-0.987579345703125,0.136566162109375
1773251789298784500,7.093784423828125,0.0733642578125,-0.9907684326171875,0.1385345458984375
1773251789308821500,7.103821533203125,0.0743255615234375,-0.987457275390625,0.1408233642578125
1773251789318859500,7.113859619140625,0.07763671875,-0.9842376708984375,0.141357421875
1773251789328896500,7.123896484375,0.0763092041015625,-0.9822540283203125,0.139801025390625
1773251789338933500,7.13393359375,0.0802154541015625,-0.9810791015625,0.14044189453125
1773251789348970800,7.143970703125,0.0855865478515625,-0.98028564453125,0.139892578125
1773251789359008500,7.154008544921875,0.0890350341796875,-0.978851318359375,0.142425537109375
1773251789369045500,7.16404541015625,0.0892333984375,-0.9811248779296875,0.141937255859375
1773251789379082500,7.17408251953125,0.087249755859375,-0.9864654541015625,0.1395263671875
1773251789389119700,7.18411962890625,0.081634521484375,-0.9898223876953125,0.14111328125
1773251789399157500,7.194157470703125,0.072723388671875,-0.9907073974609375,0.1406707763671875
1773251789409194500,7.204194580078125,0.0737457275390625,-0.9898223876953125,0.1387481689453125
1773251789419231500,7.2142314453125,0.0843353271484375,-0.9845428466796875,0.1363525390625
1773251789429268500,7.2242685546875,0.10089111328125,-0.977569580078125,0.13787841796875
1773251789439306500,7.234306396484375,0.113494873046875,-0.9793243408203125,0.1360626220703125
1773251789449343500,7.244343505859375,0.09356689453125,-0.979522705078125,0.1318817138671875
1773251789459380700,7.254380615234375,0.0613250732421875,-0.976806640625,0.1382598876953125
1773251789469417500,7.26441748046875,0.0710601806640625,-0.9783172607421875,0.1475677490234375
1773251789479455500,7.27445556640625,0.0966949462890625,-0.9875030517578125,0.1424713134765625
1773251789489492500,7.284492431640625,0.0972137451171875,-0.98809814453125,0.1416168212890625
1773251789499529700,7.29452978515625,0.096343994140625,-0.988983154296875,0.140625
1773251789509566500,7.30456640625,0.094512939453125,-0.98590087890625,0.137908935546875
1773251789519604500,7.3146044921875,0.0769195556640625,-0.9764862060546875,0.14276123046875
1773251789529641700,7.324641845703125,0.0825958251953125,-0.972564697265625,0.145751953125
1773251789539678500,7.334678466796875,0.1084747314453125,-0.97662353515625,0.1466217041015625
1773251789549715500,7.344715576171875,0.13238525390625,-0.9810791015625,0.1442413330078125
1773251789559753500,7.35475341796875,0.1268463134765625,-0.9850921630859375,0.1419677734375
1773251789569790700,7.364790771484375,0.0955810546875,-0.985260009765625,0.137786865234375
1773251789579827500,7.374827392578125,0.07696533203125,-0.9862823486328125,0.1477508544921875
1773251789589864400,7.384864501953125,0.08953857421875,-0.989898681640625,0.1555023193359375
1773251789599902700,7.39490283203125,0.1091461181640625,-0.9898834228515625,0.1531219482421875
1773251789609939500,7.404939453125,0.10760498046875,-0.9841461181640625,0.147003173828125
1773251789619976400,7.4149765625,0.0939178466796875,-0.976226806640625,0.14190673828125
1773251789630013400,7.425013427734375,0.085174560546875,-0.9745941162109375,0.1417083740234375
1773251789640051700,7.4350517578125,0.0927734375,-0.9733734130859375,0.146026611328125
1773251789650088400,7.44508837890625,0.1048583984375,-0.977325439453125,0.1464080810546875
1773251789660125400,7.45512548828125,0.108795166015625,-0.9780120849609375,0.1485137939453125
1773251789670163700,7.465163818359375,0.103302001953125,-0.9811553955078125,0.15179443359375
1773251789680200700,7.47520068359375,0.094024658203125,-0.988677978515625,0.1500396728515625
1773251789690238200,7.48523828125,0.091644287109375,-0.9955291748046875,0.148651123046875
1773251789700275200,7.495275146484375,0.09466552734375,-0.9963226318359375,0.14825439453125
1773251789710313000,7.50531298828125,0.1014251708984375,-0.9933624267578125,0.148345947265625
1773251789720350200,7.51535009765625,0.109344482421875,-0.985076904296875,0.1421051025390625
1773251789730387200,7.52538720703125,0.1165924072265625,-0.9792938232421875,0.1386566162109375
1773251789740424200,7.535424072265625,0.1111602783203125,-0.9794769287109375,0.1390380859375
1773251789750462000,7.5454619140625,0.0983428955078125,-0.983367919921875,0.1456298828125
1773251789760499200,7.555499267578125,0.1078033447265625,-0.986114501953125,0.1497039794921875
1773251789770536200,7.5655361328125,0.0900726318359375,-0.98260498046875,0.145233154296875
1773251789780573200,7.5755732421875,0.0754241943359375,-0.973724365234375,0.1534423828125
1773251789790611200,7.585611083984375,0.0904541015625,-0.9738006591796875,0.1574859619140625
1773251789800648200,7.595648193359375,0.106964111328125,-0.97955322265625,0.1524200439453125
1773251789810685200,7.605685302734375,0.1059112548828125,-0.975616455078125,0.1479644775390625
1773251789820722200,7.61572216796875,0.102783203125,-0.968902587890625,0.147430419921875
1773251789830760200,7.62576025390625,0.1071929931640625,-0.9687042236328125,0.1478271484375
1773251789840797200,7.635797119140625,0.1134185791015625,-0.9761199951171875,0.149566650390625
1773251789850834200,7.645834228515625,0.11151123046875,-0.9777984619140625,0.1474151611328125
1773251789860871200,7.65587109375,0.1000213623046875,-0.9794769287109375,0.149383544921875
1773251789870909200,7.6659091796875,0.08892822265625,-0.9814300537109375,0.1509246826171875
1773251789880946200,7.6759462890625,0.0891876220703125,-0.982391357421875,0.1476287841796875
1773251789890983200,7.685983154296875,0.1011962890625,-0.9819793701171875,0.1438751220703125
1773251789901020200,7.696020263671875,0.1082000732421875,-0.9817047119140625,0.1445159912109375
1773251789911058200,7.70605810546875,0.1051025390625,-0.9796905517578125,0.1421966552734375
1773251789921095200,7.71609521484375,0.09930419921875,-0.98028564453125,0.1412353515625
1773251789931132200,7.726132080078125,0.0959625244140625,-0.97808837890625,0.1437530517578125
1773251789941169200,7.736169189453125,0.096435546875,-0.9805450439453125,0.1491851806640625
1773251789951207200,7.746207275390625,0.09234619140625,-0.982666015625,0.15234375
1773251789961244200,7.756244140625,0.0906524658203125,-0.9835357666015625,0.152923583984375
1773251789971281200,7.76628125,0.0897064208984375,-0.9864349365234375,0.1533203125
1773251789981318100,7.776318115234375,0.0899658203125,-0.9853973388671875,0.1501617431640625
1773251789991356200,7.786356201171875,0.094451904296875,-0.9840545654296875,0.1483612060546875
1773251790001393200,7.79639306640625,0.0961761474609375,-0.979827880859375,0.1443634033203125
1773251790011430100,7.80643017578125,0.0955657958984375,-0.977447509765625,0.1453704833984375
1773251790021467100,7.816467041015625,0.090850830078125,-0.979644775390625,0.1459503173828125
1773251790031505200,7.826505126953125,0.091094970703125,-0.9816436767578125,0.143402099609375
1773251790041542100,7.836542236328125,0.09210205078125,-0.9853363037109375,0.14263916015625
1773251790051579100,7.8465791015625,0.0890655517578125,-0.9877166748046875,0.14739990234375
1773251790061616000,7.8566162109375,0.087188720703125,-0.9854888916015625,0.150848388671875
1773251790071654100,7.866654052734375,0.088409423828125,-0.9836883544921875,0.1509246826171875
1773251790081691400,7.87669140625,0.09002685546875,-0.981903076171875,0.1461944580078125
1773251790091728100,7.88672802734375,0.089813232421875,-0.978485107421875,0.1431884765625
1773251790101766100,7.89676611328125,0.08819580078125,-0.97918701171875,0.14727783203125
1773251790111803100,7.90680322265625,0.0896759033203125,-0.98052978515625,0.1476287841796875
1773251790121840000,7.916840087890625,0.088531494140625,-0.982330322265625,0.14373779296875
1773251790131877000,7.926877197265625,0.0870513916015625,-0.9862518310546875,0.1490020751953125
1773251790141915100,7.9369150390625,0.084381103515625,-0.98828125,0.1485595703125
1773251790151952400,7.946952392578125,0.08648681640625,-0.9866790771484375,0.1470794677734375
1773251790161989000,7.956989013671875,0.08984375,-0.9849700927734375,0.1466827392578125
1773251790172026000,7.967026123046875,0.089752197265625,-0.9849700927734375,0.14349365234375
1773251790182064000,7.977064208984375,0.08624267578125,-0.986785888671875,0.14312744140625
1773251790192101000,7.98710107421875,0.0852813720703125,-0.982635498046875,0.144317626953125
1773251790202138000,7.99713818359375,0.0881805419921875,-0.98760986328125,0.14447021484375
1773251790212175000,8.007175048828126,0.0856475830078125,-0.9872283935546875,0.1440277099609375
1773251790222213400,8.01721337890625,0.088348388671875,-0.9835968017578125,0.143829345703125
1773251790232250000,8.02725,0.0877685546875,-0.9824981689453125,0.1436767578125
1773251790242287000,8.037287109375,0.0818634033203125,-0.9832916259765625,0.1418304443359375
1773251790252324000,8.047323974609375,0.0789337158203125,-0.982208251953125,0.1424102783203125
1773251790262362400,8.0573623046875,0.078369140625,-0.982147216796875,0.1450653076171875
1773251790272399000,8.067399169921876,0.0808563232421875,-0.981658935546875,0.144927978515625
1773251790282436000,8.07743603515625,0.09033203125,-0.9833221435546875,0.1424713134765625
1773251790292473000,8.08747314453125,0.0944671630859375,-0.9861907958984375,0.1426239013671875
1773251790302511000,8.097510986328125,0.0930633544921875,-0.9874114990234375,0.1441497802734375
1773251790312548000,8.107548095703125,0.0840606689453125,-0.9898681640625,0.1434478759765625
1773251790322585000,8.117585205078125,0.07830810546875,-0.9871063232421875,0.1435089111328125
1773251790332622000,8.1276220703125,0.0802154541015625,-0.9865264892578125,0.142364501953125
1773251790342660000,8.13766015625,0.0836944580078125,-0.989715576171875,0.138427734375
1773251790352697000,8.147697021484374,0.0877227783203125,-0.989776611328125,0.1364898681640625
1773251790362734000,8.157734130859374,0.0950927734375,-0.9888916015625,0.1384429931640625
1773251790372771300,8.167771240234375,0.0813140869140625,-0.9867095947265625,0.1397857666015625
1773251790382809000,8.17780908203125,0.06195068359375,-0.98211669921875,0.1446685791015625
1773251790392846000,8.18784619140625,0.0724334716796875,-0.984039306640625,0.154266357421875
1773251790402883000,8.197883056640626,0.0863800048828125,-0.9870452880859375,0.14959716796875
1773251790412920300,8.20792041015625,0.0948944091796875,-0.9848175048828125,0.1393585205078125
1773251790422958000,8.2179580078125,0.0920867919921875,-0.9837799072265625,0.134521484375
1773251790432995000,8.2279951171875,0.0817718505859375,-0.9792022705078125,0.1358795166015625
1773251790443032300,8.2380322265625,0.069305419921875,-0.9751739501953125,0.136383056640625
1773251790453070000,8.248070068359375,0.0645294189453125,-0.9745025634765625,0.137237548828125
1773251790463107000,8.258107177734376,0.08050537109375,-0.9771575927734375,0.144775390625
1773251790473144000,8.26814404296875,0.1036834716796875,-0.98321533203125,0.1474761962890625
1773251790483181300,8.278181396484374,0.110382080078125,-0.9859771728515625,0.1447296142578125
1773251790493219000,8.288218994140625,0.08807373046875,-0.9860992431640625,0.1391754150390625
1773251790503256000,8.298256103515625,0.0673980712890625,-0.9868621826171875,0.1436767578125
1773251790513293300,8.308293212890625,0.06842041015625,-0.9899139404296875,0.1454925537109375
1773251790523330300,8.318330322265625,0.0863037109375,-0.9898681640625,0.138427734375
1773251790533368000,8.3283681640625,0.095062255859375,-0.987060546875,0.1356201171875
1773251790543405000,8.338405029296876,0.0861968994140625,-0.9875640869140625,0.133026123046875
1773251790553442300,8.3484423828125,0.0723419189453125,-0.984649658203125,0.133331298828125
1773251790563479300,8.358479248046875,0.067047119140625,-0.982177734375,0.1392974853515625
1773251790573517000,8.36851708984375,0.073089599609375,-0.98211669921875,0.143035888671875
1773251790583554300,8.37855419921875,0.0828399658203125,-0.982818603515625,0.143463134765625
1773251790593591300,8.38859130859375,0.08758544921875,-0.9862213134765625,0.1453857421875
1773251790603628000,8.3986279296875,0.0809783935546875,-0.988555908203125,0.1453857421875
1773251790613666000,8.408666015625,0.0735626220703125,-0.9913330078125,0.1478118896484375
1773251790623703300,8.418703369140625,0.0741729736328125,-0.989776611328125,0.15130615234375
1773251790633740300,8.428740234375,0.077850341796875,-0.98846435546875,0.153228759765625
1773251790643777000,8.438777099609375,0.0826873779296875,-0.9866180419921875,0.151336669921875
1773251790653815300,8.448815185546875,0.08477783203125,-0.9847412109375,0.1478118896484375
1773251790663852300,8.458852294921876,0.082489013671875,-0.984222412109375,0.144775390625
1773251790673889300,8.46888916015625,0.0812530517578125,-0.98577880859375,0.1467132568359375
1773251790683926000,8.478926025390624,0.078399658203125,-0.98321533203125,0.150360107421875
1773251790693964000,8.488964111328125,0.092437744140625,-0.9813079833984375,0.1497650146484375
1773251790704001000,8.4990009765625,0.077728271484375,-0.9806671142578125,0.1457366943359375
1773251790714038000,8.5090380859375,0.0591888427734375,-0.97735595703125,0.15240478515625
1773251790724075000,8.519074951171875,0.0613250732421875,-0.978729248046875,0.1565093994140625
1773251790734113000,8.529113037109376,0.0721588134765625,-0.98199462890625,0.15069580078125
1773251790744150000,8.53914990234375,0.084136962890625,-0.9832000732421875,0.14923095703125
1773251790754187000,8.54918701171875,0.086700439453125,-0.9828948974609375,0.150054931640625
1773251790764224000,8.55922412109375,0.0819549560546875,-0.986053466796875,0.1495513916015625
1773251790774262000,8.569261962890625,0.0759429931640625,-0.9860382080078125,0.1497650146484375
1773251790784299000,8.579299072265625,0.077392578125,-0.9852447509765625,0.147216796875
1773251790794336000,8.5893359375,0.0790863037109375,-0.984588623046875,0.145721435546875
1773251790804374000,8.5993740234375,0.076629638671875,-0.986419677734375,0.1421356201171875
1773251790814411000,8.609410888671874,0.0745849609375,-0.985504150390625,0.142120361328125
1773251790824448000,8.619447998046875,0.074188232421875,-0.9824371337890625,0.1440887451171875
1773251790834485000,8.629485107421875,0.0713958740234375,-0.9808197021484375,0.146331787109375
1773251790844523000,8.63952294921875,0.0737762451171875,-0.981536865234375,0.14630126953125
1773251790854560300,8.649560302734375,0.0786285400390625,-0.98492431640625,0.14495849609375
1773251790864597000,8.659596923828126,0.080810546875,-0.987548828125,0.149322509765625
1773251790874634000,8.669634033203126,0.078155517578125,-0.9882354736328125,0.1498870849609375
1773251790884672000,8.679672119140625,0.076202392578125,-0.9882354736328125,0.149505615234375
1773251790894709000,8.689708984375,0.0796051025390625,-0.988739013671875,0.150482177734375
1773251790904746000,8.69974609375,0.076934814453125,-0.9887847900390625,0.1494903564453125
1773251790914783000,8.709782958984375,0.074432373046875,-0.983734130859375,0.146209716796875
1773251790924821200,8.7198212890625,0.075164794921875,-0.9841156005859375,0.1432647705078125
1773251790934858000,8.72985791015625,0.0764007568359375,-0.984588623046875,0.1410064697265625
1773251790944895000,8.73989501953125,0.076019287109375,-0.9846038818359375,0.1417236328125
1773251790954932000,8.749931884765624,0.0754547119140625,-0.981781005859375,0.1406097412109375
1773251790964970000,8.759969970703125,0.0734100341796875,-0.9853668212890625,0.140289306640625
1773251790975007000,8.770007080078125,0.071075439453125,-0.9918060302734375,0.1392669677734375
1773251790985044000,8.7800439453125,0.0693511962890625,-0.9929351806640625,0.14068603515625
1773251790995081000,8.7900810546875,0.0771942138671875,-0.986236572265625,0.140167236328125
1773251791005119000,8.800118896484374,0.083984375,-0.982208251953125,0.139556884765625
1773251791015156000,8.810156005859374,0.082733154296875,-0.985382080078125,0.136627197265625
1773251791025193000,8.82019287109375,0.077056884765625,-0.9892425537109375,0.1331939697265625
1773251791035230000,8.83022998046875,0.0731201171875,-0.98846435546875,0.13104248046875
1773251791045268000,8.84026806640625,0.0793914794921875,-0.986114501953125,0.1336822509765625
1773251791055305000,8.850304931640625,0.0773468017578125,-0.9874725341796875,0.1351470947265625
1773251791065342000,8.860342041015626,0.073333740234375,-0.987396240234375,0.1351165771484375
1773251791075380000,8.8703798828125,0.0731201171875,-0.9861602783203125,0.1355743408203125
1773251791085417000,8.8804169921875,0.0740966796875,-0.9858245849609375,0.136749267578125
1773251791095454000,8.890453857421875,0.0756378173828125,-0.98614501953125,0.1367034912109375
1773251791105491000,8.900490966796875,0.074249267578125,-0.9899749755859375,0.13623046875
1773251791115528200,8.910528076171875,0.0734100341796875,-0.9909210205078125,0.1373443603515625
1773251791125566000,8.92056591796875,0.0731964111328125,-0.985198974609375,0.136627197265625
1773251791135603000,8.93060302734375,0.0708465576171875,-0.985015869140625,0.140045166015625
1773251791145640200,8.94064013671875,0.07037353515625,-0.984039306640625,0.1435089111328125
1773251791155678000,8.950677978515625,0.0714569091796875,-0.9844818115234375,0.1466827392578125
1773251791165715000,8.96071484375,0.0754241943359375,-0.98858642578125,0.147216796875
1773251791175752000,8.970751953125,0.0773468017578125,-0.9904937744140625,0.1464691162109375
1773251791185789200,8.9807890625,0.076873779296875,-0.9897613525390625,0.1416778564453125
1773251791195827000,8.990826904296876,0.071746826171875,-0.990081787109375,0.138885498046875
1773251791205864000,9.000864013671874,0.064544677734375,-0.98565673828125,0.1404571533203125
1773251791215901200,9.010901123046875,0.0643157958984375,-0.9816436767578125,0.1380615234375
1773251791225938200,9.020938232421875,0.064300537109375,-0.9780426025390625,0.13824462890625
1773251791235976000,9.030975830078125,0.0643310546875,-0.9806365966796875,0.137115478515625
1773251791246013000,9.041012939453125,0.0614776611328125,-0.984344482421875,0.1339874267578125
1773251791256050200,9.05105029296875,0.0611572265625,-0.986419677734375,0.1366119384765625
1773251791266087200,9.061087158203126,0.0706634521484375,-0.9841461181640625,0.13818359375
1773251791276125000,9.071125,0.0768280029296875,-0.9827423095703125,0.1387176513671875
1773251791286162200,9.081162109375,0.078094482421875,-0.9824676513671875,0.1373748779296875
1773251791296199200,9.09119921875,0.0757904052734375,-0.982177734375,0.1398773193359375
1773251791306236000,9.10123583984375,0.0750579833984375,-0.981292724609375,0.1406707763671875
1773251791316274000,9.11127392578125,0.0796966552734375,-0.984954833984375,0.1386260986328125
1773251791326311200,9.121311279296876,0.0608062744140625,-0.9904327392578125,0.135162353515625
1773251791336348200,9.13134814453125,0.0569915771484375,-0.9911041259765625,0.1405181884765625
1773251791346385000,9.141385009765624,0.0709228515625,-0.993438720703125,0.1376953125
1773251791356423200,9.151423095703125,0.0650634765625,-0.9920806884765625,0.1325836181640625
1773251791366460200,9.161460205078125,0.0760040283203125,-0.98590087890625,0.1378631591796875
1773251791376497200,9.1714970703125,0.1016998291015625,-0.983673095703125,0.1352996826171875
1773251791386535000,9.181534912109376,0.0896759033203125,-0.9799346923828125,0.1335296630859375
1773251791396572200,9.191572265625,0.0583343505859375,-0.9752349853515625,0.143310546875
1773251791406609200,9.201609130859374,0.049530029296875,-0.9772491455078125,0.150634765625
1773251791416646000,9.21164599609375,0.0726776123046875,-0.9840240478515625,0.1507415771484375
1773251791426684200,9.22168408203125,0.0986480712890625,-0.988800048828125,0.1460418701171875
1773251791436721200,9.23172119140625,0.0909881591796875,-0.9933319091796875,0.140045166015625
1773251791446758100,9.241758056640625,0.061798095703125,-0.9915313720703125,0.1409759521484375
1773251791456795000,9.251794921875,0.05517578125,-0.988311767578125,0.150054931640625
1773251791466833200,9.261833251953124,0.0758819580078125,-0.9864044189453125,0.1502532958984375
1773251791476870100,9.2718701171875,0.089111328125,-0.98760986328125,0.13995361328125
1773251791486907000,9.281906982421875,0.0838165283203125,-0.987091064453125,0.1324920654296875
1773251791496943900,9.29194384765625,0.071502685546875,-0.9866180419921875,0.1316070556640625
1773251791506982100,9.301982177734375,0.0686798095703125,-0.986846923828125,0.1342315673828125
1773251791517019100,9.31201904296875,0.0762176513671875,-0.986114501953125,0.141326904296875
1773251791527056000,9.322055908203126,0.0826263427734375,-0.9853668212890625,0.1440887451171875
1773251791537092900,9.3320927734375,0.0867156982421875,-0.9868927001953125,0.141204833984375
1773251791547131100,9.342131103515625,0.0821685791015625,-0.9904632568359375,0.1414642333984375
1773251791557168000,9.352168212890625,0.07598876953125,-0.989349365234375,0.14459228515625
1773251791567204900,9.362204833984375,0.07305908203125,-0.9862213134765625,0.1486663818359375
1773251791577242000,9.3722421875,0.0733642578125,-0.9853057861328125,0.1485137939453125
1773251791587280100,9.382280029296876,0.07818603515625,-0.984283447265625,0.1469573974609375
1773251791597316900,9.39231689453125,0.08074951171875,-0.9842529296875,0.1492462158203125
1773251791607353900,9.402353759765624,0.0840606689453125,-0.9824676513671875,0.1518096923828125
1773251791617392000,9.41239208984375,0.08489990234375,-0.9847869873046875,0.1503753662109375
1773251791627429000,9.42242919921875,0.0758056640625,-0.9890289306640625,0.1519012451171875
1773251791637465900,9.4324658203125,0.083404541015625,-0.9916839599609375,0.1562042236328125
1773251791647503000,9.442503173828126,0.0887603759765625,-0.9888763427734375,0.15301513671875
1773251791657541000,9.452541015625,0.0704498291015625,-0.979217529296875,0.1479339599609375
1773251791667577900,9.462577880859374,0.0682220458984375,-0.970306396484375,0.1522674560546875
1773251791677614800,9.47261474609375,0.081451416015625,-0.969207763671875,0.1537017822265625
1773251791687652000,9.482652099609375,0.091705322265625,-0.974151611328125,0.148956298828125
1773251791697690000,9.492690185546875,0.08770751953125,-0.9800872802734375,0.14910888671875
1773251791707726800,9.502726806640625,0.0831451416015625,-0.979644775390625,0.1580352783203125
1773251791717764000,9.51276416015625,0.0864715576171875,-0.9783477783203125,0.1625823974609375
1773251791727801000,9.522801025390624,0.09283447265625,-0.9807281494140625,0.1618194580078125
1773251791737839000,9.532839111328125,0.0932769775390625,-0.9813690185546875,0.1532745361328125
1773251791747875800,9.542875732421875,0.0876007080078125,-0.9860382080078125,0.1503448486328125
1773251791757913000,9.5529130859375,0.0814361572265625,-0.989288330078125,0.1497802734375
1773251791767950000,9.5629501953125,0.08245849609375,-0.9847259521484375,0.1505279541015625
1773251791777987800,9.57298779296875,0.08599853515625,-0.982208251953125,0.154998779296875
1773251791788025000,9.583025146484376,0.091217041015625,-0.9835662841796875,0.1593780517578125
1773251791798062000,9.59306201171875,0.0922088623046875,-0.983428955078125,0.158172607421875
1773251791808100000,9.60310009765625,0.090911865234375,-0.983795166015625,0.159454345703125
1773251791818136800,9.61313671875,0.092376708984375,-0.9853057861328125,0.16131591796875
1773251791828174000,9.623174072265625,0.0932769775390625,-0.98516845703125,0.158111572265625
1773251791838211000,9.633211181640625,0.0928955078125,-0.9844512939453125,0.15606689453125
1773251791848248800,9.643248779296876,0.089111328125,-0.9880523681640625,0.1562042236328125
1773251791858286000,9.6532861328125,0.088134765625,-0.9881439208984375,0.1524658203125
1773251791868323000,9.663322998046874,0.091522216796875,-0.9833831787109375,0.1532745361328125
1773251791878360000,9.673360107421875,0.1000213623046875,-0.9827423095703125,0.1539306640625
1773251791888397800,9.683397705078125,0.1005401611328125,-0.9810638427734375,0.1511077880859375
1773251791898435000,9.69343505859375,0.0985870361328125,-0.976531982421875,0.1521759033203125
1773251791908472000,9.70347216796875,0.097412109375,-0.978607177734375,0.1527862548828125
1773251791918509000,9.713509033203126,0.0932769775390625,-0.9839324951171875,0.154327392578125
1773251791928547000,9.723547119140624,0.0949249267578125,-0.982757568359375,0.151458740234375
1773251791938584000,9.733583984375,0.097320556640625,-0.9763641357421875,0.1521453857421875
1773251791948621000,9.74362109375,0.10028076171875,-0.97149658203125,0.1522369384765625
1773251791958658000,9.753657958984375,0.101287841796875,-0.9736480712890625,0.155059814453125
1773251791968696000,9.763696044921875,0.1005859375,-0.9781036376953125,0.1535186767578125
1773251791978733000,9.773733154296876,0.0989227294921875,-0.98065185546875,0.15155029296875
1773251791988770000,9.78377001953125,0.09832763671875,-0.98333740234375,0.1526641845703125
1773251791998807000,9.79380712890625,0.0935211181640625,-0.9860687255859375,0.1574249267578125
1773251792008845000,9.803844970703125,0.0920257568359375,-0.98626708984375,0.1553497314453125
1773251792018882000,9.813882080078125,0.0952911376953125,-0.98406982421875,0.15289306640625
1773251792028919000,9.8239189453125,0.0995635986328125,-0.9872589111328125,0.151458740234375
1773251792038957000,9.83395703125,0.096466064453125,-0.9875640869140625,0.148040771484375
1773251792048994000,9.843994140625,0.0958404541015625,-0.982818603515625,0.1482086181640625
1773251792059031000,9.854031005859374,0.0973358154296875,-0.9783477783203125,0.1533050537109375
1773251792069068000,9.864068115234375,0.1019287109375,-0.9745025634765625,0.156585693359375
1773251792079106000,9.87410595703125,0.1026611328125,-0.977020263671875,0.1569976806640625
1773251792089143000,9.88414306640625,0.09979248046875,-0.9805908203125,0.1553192138671875
1773251792099180000,9.894179931640625,0.0954742431640625,-0.98175048828125,0.152618408203125
1773251792109217000,9.904217041015626,0.09613037109375,-0.982421875,0.1512908935546875
1773251792119255000,9.914255126953124,0.0990447998046875,-0.982025146484375,0.147674560546875
1773251792129292000,9.9242919921875,0.099700927734375,-0.97955322265625,0.14739990234375
1773251792139329000,9.9343291015625,0.099334716796875,-0.978302001953125,0.147552490234375
1773251792149366000,9.944365966796875,0.09869384765625,-0.9773406982421875,0.1481781005859375
1773251792159404000,9.954404052734375,0.097686767578125,-0.976470947265625,0.1473388671875
1773251792169441000,9.96444091796875,0.0972747802734375,-0.9777679443359375,0.1478424072265625
1773251792179478000,9.97447802734375,0.0949249267578125,-0.982513427734375,0.1483306884765625
1773251792189516000,9.98451611328125,0.094329833984375,-0.986297607421875,0.1468353271484375
1773251792199553000,9.994552978515625,0.0982666015625,-0.9893951416015625,0.15203857421875
1773251792209590000,10.004590087890625,0.1077117919921875,-0.989471435546875,0.1558380126953125
1773251792219627300,10.014627197265625,0.1143035888671875,-0.9886932373046875,0.153411865234375
1773251792229665000,10.0246650390625,0.1122894287109375,-0.986968994140625,0.149932861328125
1773251792239702000,10.034701904296876,0.1085205078125,-0.9807891845703125,0.14898681640625
1773251792249739000,10.044739013671874,0.1055755615234375,-0.978485107421875,0.14898681640625
1773251792259776000,10.05477587890625,0.1056060791015625,-0.982666015625,0.14666748046875
1773251792269814000,10.06481396484375,0.10968017578125,-0.9848785400390625,0.144744873046875
1773251792279851000,10.07485107421875,0.091949462890625,-0.9847412109375,0.1450958251953125
1773251792289888300,10.08488818359375,0.065582275390625,-0.981689453125,0.14990234375
1773251792299925000,10.094925048828125,0.07928466796875,-0.9812164306640625,0.1514739990234375
1773251792309963000,10.104962890625,0.1127777099609375,-0.984832763671875,0.149017333984375
1773251792320000000,10.115,0.1240692138671875,-0.9829864501953125,0.1461181640625
1773251792330037000,10.125037109375,0.1189422607421875,-0.9762725830078125,0.1436767578125
1773251792340074000,10.135073974609375,0.1053314208984375,-0.9732666015625,0.14361572265625
1773251792350112000,10.145112060546875,0.0813751220703125,-0.9718017578125,0.1464080810546875
1773251792360149200,10.155149169921875,0.080657958984375,-0.9741058349609375,0.148040771484375
1773251792370186000,10.16518603515625,0.10589599609375,-0.980865478515625,0.14697265625
1773251792380224000,10.17522412109375,0.131683349609375,-0.98211669921875,0.14300537109375
1773251792390261000,10.185260986328124,0.127227783203125,-0.984344482421875,0.138336181640625
1773251792400298200,10.19529833984375,0.0983734130859375,-0.9831390380859375,0.139678955078125
1773251792410335000,10.2053349609375,0.084259033203125,-0.9800262451171875,0.14849853515625
1773251792420373000,10.215373046875,0.10150146484375,-0.981964111328125,0.155029296875
1773251792430410200,10.22541015625,0.118255615234375,-0.9820556640625,0.151824951171875
1773251792440447000,10.235447021484376,0.1177978515625,-0.979827880859375,0.1472930908203125
1773251792450484000,10.24548388671875,0.1042327880859375,-0.977264404296875,0.145965576171875
1773251792460522000,10.25552197265625,0.0919189453125,-0.974334716796875,0.14996337890625
1773251792470559200,10.265559326171875,0.0921478271484375,-0.9801483154296875,0.1525115966796875
1773251792480596000,10.275595947265625,0.101409912109375,-0.9847259521484375,0.1528778076171875
1773251792490633000,10.285633056640625,0.1097259521484375,-0.986175537109375,0.15216064453125
1773251792500671200,10.295671142578126,0.111480712890625,-0.9880523681640625,0.1495513916015625
1773251792510708000,10.3057080078125,0.1066741943359375,-0.9930267333984375,0.1508941650390625
1773251792520745000,10.315744873046874,0.10260009765625,-0.9908447265625,0.1536407470703125
1773251792530782000,10.325781982421875,0.1056976318359375,-0.9878082275390625,0.15081787109375
1773251792540820200,10.3358203125,0.1128082275390625,-0.9873199462890625,0.148834228515625
1773251792550857000,10.34585693359375,0.1116180419921875,-0.9869232177734375,0.1483917236328125
1773251792560894000,10.35589404296875,0.105712890625,-0.9808807373046875,0.1445465087890625
1773251792570931000,10.365930908203126,0.0971832275390625,-0.9763031005859375,0.145172119140625
1773251792580969200,10.37596923828125,0.105194091796875,-0.9761810302734375,0.14678955078125
1773251792591006000,10.386005859375,0.127044677734375,-0.978424072265625,0.141845703125
1773251792601043000,10.39604296875,0.1068267822265625,-0.9794769287109375,0.13665771484375
1773251792611081200,10.406081298828125,0.0827484130859375,-0.9767913818359375,0.1411895751953125
1773251792621118000,10.416117919921875,0.094940185546875,-0.976531982421875,0.14508056640625
1773251792631155000,10.426155029296876,0.1209869384765625,-0.976318359375,0.1468353271484375
1773251792641192000,10.43619189453125,0.1256103515625,-0.9755859375,0.1443023681640625
1773251792651230200,10.446230224609375,0.1030426025390625,-0.97296142578125,0.143402099609375
1773251792661267000,10.456266845703125,0.091156005859375,-0.9711151123046875,0.1441802978515625
1773251792671304000,10.466303955078125,0.104522705078125,-0.9769134521484375,0.1417083740234375
1773251792681341000,10.4763408203125,0.1174163818359375,-0.981903076171875,0.1384735107421875
1773251792691379000,10.48637890625,0.111907958984375,-0.9800567626953125,0.1393890380859375
1773251792701416000,10.496416015625,0.1031951904296875,-0.9795379638671875,0.1401824951171875
1773251792711453000,10.506452880859374,0.10076904296875,-0.979339599609375,0.136566162109375
1773251792721490000,10.516489990234374,0.1040191650390625,-0.9792633056640625,0.139617919921875
1773251792731528000,10.52652783203125,0.1052093505859375,-0.9781494140625,0.1422119140625
1773251792741565000,10.53656494140625,0.1046905517578125,-0.9794464111328125,0.1419830322265625
1773251792751602000,10.546601806640625,0.1071624755859375,-0.9823150634765625,0.1417694091796875
1773251792761639000,10.556638916015626,0.10626220703125,-0.980377197265625,0.1424407958984375
1773251792771677000,10.566677001953124,0.1037445068359375,-0.97894287109375,0.1438446044921875
1773251792781714000,10.5767138671875,0.1011199951171875,-0.9792022705078125,0.14404296875
1773251792791751000,10.5867509765625,0.105682373046875,-0.9786529541015625,0.141937255859375
1773251792801789000,10.596788818359375,0.1069793701171875,-0.9789581298828125,0.1428985595703125
1773251792811826000,10.606825927734375,0.1069793701171875,-0.9786834716796875,0.14202880859375
1773251792821863000,10.61686279296875,0.105743408203125,-0.9790191650390625,0.1430206298828125
1773251792831900000,10.62689990234375,0.10455322265625,-0.982696533203125,0.14068603515625
1773251792841938000,10.63693798828125,0.10455322265625,-0.984710693359375,0.1403961181640625
1773251792851975000,10.646974853515625,0.108367919921875,-0.98565673828125,0.140594482421875
1773251792862012000,10.657011962890625,0.112396240234375,-0.981689453125,0.142242431640625
1773251792872049000,10.667048828125,0.1119384765625,-0.981201171875,0.141448974609375
1773251792882087000,10.6770869140625,0.110321044921875,-0.982452392578125,0.1433258056640625
1773251792892124000,10.6871240234375,0.1072998046875,-0.9824371337890625,0.144683837890625
1773251792902161000,10.697160888671876,0.1021575927734375,-0.982879638671875,0.1437225341796875
1773251792912198100,10.7071982421875,0.104461669921875,-0.9854278564453125,0.1434478759765625
1773251792922236000,10.71723583984375,0.1051177978515625,-0.9864654541015625,0.1433258056640625
1773251792932273000,10.72727294921875,0.1060943603515625,-0.9827880859375,0.14190673828125
1773251792942310000,10.737309814453125,0.105224609375,-0.9802398681640625,0.1422119140625
1773251792952347100,10.74734716796875,0.105255126953125,-0.9797821044921875,0.1406707763671875
1773251792962385000,10.757385009765626,0.1073150634765625,-0.981109619140625,0.1386871337890625
1773251792972422000,10.767421875,0.105926513671875,-0.98468017578125,0.138763427734375
1773251792982459100,10.777459228515625,0.1016693115234375,-0.9860687255859375,0.1378173828125
1773251792992496000,10.78749609375,0.100372314453125,-0.9860687255859375,0.144134521484375
1773251793002534000,10.797533935546875,0.099853515625,-0.987060546875,0.1463470458984375
1773251793012571000,10.80757080078125,0.1010589599609375,-0.98870849609375,0.145904541015625
1773251793022608100,10.817608154296876,0.10638427734375,-0.98468017578125,0.1414031982421875
1773251793032646000,10.82764599609375,0.1100006103515625,-0.98101806640625,0.1412506103515625
1773251793042683000,10.837682861328124,0.1036224365234375,-0.980316162109375,0.1400146484375
1773251793052719900,10.847719970703125,0.0984039306640625,-0.9816741943359375,0.1380462646484375
1773251793062757000,10.857757080078125,0.093292236328125,-0.9813232421875,0.1357269287109375
1773251793072795000,10.867794921875,0.09417724609375,-0.9822845458984375,0.1347808837890625
1773251793082832000,10.877831787109375,0.0982513427734375,-0.9873809814453125,0.1370086669921875
1773251793092869000,10.887869140625,0.0990142822265625,-0.9869232177734375,0.1404266357421875
1773251793102906000,10.897906005859374,0.099700927734375,-0.980560302734375,0.1451568603515625
1773251793112943900,10.90794384765625,0.0986175537109375,-0.982879638671875,0.1441192626953125
1773251793122980900,10.91798095703125,0.0995330810546875,-0.984100341796875,0.1432342529296875
1773251793133018000,10.92801806640625,0.099029541015625,-0.98577880859375,0.1404876708984375
1773251793143054800,10.938054931640625,0.1045989990234375,-0.98480224609375,0.1380462646484375
1773251793153092900,10.9480927734375,0.1145782470703125,-0.9840087890625,0.1346893310546875
1773251793163130000,10.958130126953124,0.09881591796875,-0.9823150634765625,0.1318817138671875
1773251793173167000,10.9681669921875,0.072357177734375,-0.9779815673828125,0.1383514404296875
1773251793183203800,10.978203857421875,0.079681396484375,-0.9770660400390625,0.150421142578125
1773251793193241900,10.988241943359375,0.1085662841796875,-0.981903076171875,0.1537017822265625
1773251793203279000,10.998279052734375,0.11798095703125,-0.9839935302734375,0.144317626953125
1773251793213315800,11.00831591796875,0.10711669921875,-0.9824981689453125,0.140594482421875
1773251793223353900,11.018353759765626,0.0954132080078125,-0.98199462890625,0.1432342529296875
1773251793233391000,11.02839111328125,0.07763671875,-0.9750823974609375,0.1491241455078125
1773251793243428000,11.038427978515625,0.0746307373046875,-0.972991943359375,0.1491546630859375
1773251793253464800,11.04846484375,0.09033203125,-0.9774322509765625,0.148529052734375
1773251793263502800,11.0585029296875,0.114898681640625,-0.981292724609375,0.146820068359375
1773251793273540000,11.0685400390625,0.1231842041015625,-0.9844512939453125,0.1431121826171875
1773251793283577000,11.0785771484375,0.101409912109375,-0.9832916259765625,0.1414337158203125
1773251793293613800,11.08861376953125,0.0808868408203125,-0.984771728515625,0.1488800048828125
1773251793303652000,11.098652099609374,0.085205078125,-0.988616943359375,0.1543426513671875
1773251793313689000,11.108689208984375,0.1043243408203125,-0.9878997802734375,0.1466522216796875
1773251793323725800,11.118725830078125,0.116607666015625,-0.986328125,0.13958740234375
1773251793333762800,11.1287626953125,0.1054229736328125,-0.9850616455078125,0.138580322265625
1773251793343801000,11.138801025390626,0.0829315185546875,-0.9839935302734375,0.1421966552734375
1773251793353838000,11.148838134765626,0.07598876953125,-0.9826507568359375,0.145111083984375
1773251793363874800,11.158874755859374,0.081695556640625,-0.98101806640625,0.1466522216796875
1773251793373911800,11.168911865234374,0.0956878662109375,-0.9818267822265625,0.1445770263671875
1773251793383950000,11.1789501953125,0.1022186279296875,-0.9842987060546875,0.1397552490234375
1773251793393986800,11.18898681640625,0.099395751953125,-0.988250732421875,0.1345367431640625
1773251793404023800,11.19902392578125,0.0937957763671875,-0.9878082275390625,0.1360015869140625
1773251793414062000,11.20906201171875,0.089752197265625,-0.9852294921875,0.139617919921875
1773251793424099000,11.21909912109375,0.0889892578125,-0.9873199462890625,0.1413726806640625
1773251793434135800,11.2291357421875,0.08807373046875,-0.991424560546875,0.140106201171875
1773251793444172800,11.2391728515625,0.08978271484375,-0.9928741455078125,0.1392974853515625
1773251793454211000,11.249211181640625,0.0917816162109375,-0.9925384521484375,0.13323974609375
1773251793464248000,11.259248046875,0.0853271484375,-0.9879150390625,0.13067626953125
1773251793474284800,11.269284912109375,0.094573974609375,-0.98590087890625,0.1304168701171875
1773251793484321800,11.27932177734375,0.104736328125,-0.9846954345703125,0.126678466796875
1773251793494360000,11.289360107421874,0.083740234375,-0.9789276123046875,0.1253814697265625
1773251793504396800,11.299396728515624,0.0752105712890625,-0.9766845703125,0.135650634765625
1773251793514433800,11.309433837890625,0.0861968994140625,-0.981292724609375,0.1411895751953125
1773251793524471000,11.319470947265625,0.094512939453125,-0.9829864501953125,0.138702392578125
1773251793534509000,11.329509033203125,0.09375,-0.9850311279296875,0.1405181884765625
1773251793544545800,11.3395458984375,0.0924530029296875,-0.98321533203125,0.1447601318359375
1773251793554582800,11.349582763671876,0.0938720703125,-0.982269287109375,0.1440887451171875
1773251793564620000,11.3596201171875,0.09765625,-0.9826812744140625,0.141693115234375
1773251793574657800,11.36965771484375,0.0985870361328125,-0.9821319580078125,0.139984130859375
1773251793584694800,11.37969482421875,0.0931549072265625,-0.983154296875,0.1397552490234375
1773251793594732000,11.38973193359375,0.0880126953125,-0.9850616455078125,0.14044189453125
1773251793604769000,11.39976904296875,0.085357666015625,-0.9846343994140625,0.138458251953125
1773251793614806800,11.409806884765626,0.087646484375,-0.9863739013671875,0.135650634765625
1773251793624843800,11.41984375,0.0890655517578125,-0.9853515625,0.137115478515625
1773251793634881000,11.429881103515624,0.087890625,-0.98516845703125,0.1351165771484375
1773251793644919000,11.4399189453125,0.086669921875,-0.98406982421875,0.1336212158203125
1773251793654955800,11.449955810546875,0.08575439453125,-0.986083984375,0.134918212890625
1773251793664993000,11.459992919921875,0.0876922607421875,-0.986541748046875,0.1363067626953125
1773251793675030000,11.470030029296876,0.0872344970703125,-0.98651123046875,0.1378021240234375
1773251793685067800,11.48006787109375,0.082000732421875,-0.987060546875,0.1385345458984375
1773251793695104500,11.4901044921875,0.0770111083984375,-0.98773193359375,0.138427734375
1773251793705141800,11.500141845703125,0.0795440673828125,-0.989837646484375,0.1360626220703125
1773251793715178800,11.5101787109375,0.0859832763671875,-0.9913482666015625,0.13311767578125
1773251793725216500,11.520216552734375,0.0875091552734375,-0.9920806884765625,0.129058837890625
1773251793735253800,11.530253662109375,0.084320068359375,-0.9890594482421875,0.1275634765625
1773251793745290800,11.540290771484376,0.086181640625,-0.9852447509765625,0.12939453125
1773251793755327700,11.55032763671875,0.0850372314453125,-0.9821624755859375,0.1324920654296875
1773251793765365500,11.560365478515624,0.0846710205078125,-0.9834747314453125,0.1340179443359375
1773251793775402800,11.57040283203125,0.0799407958984375,-0.9853973388671875,0.1372222900390625
1773251793785439700,11.580439697265625,0.0739593505859375,-0.9858551025390625,0.1378631591796875
1773251793795476700,11.590476806640625,0.0731658935546875,-0.9857025146484375,0.1365966796875
1773251793805514800,11.6005146484375,0.0759735107421875,-0.9852447509765625,0.1347198486328125
1773251793815551700,11.6105517578125,0.079345703125,-0.9847869873046875,0.13079833984375
1773251793825588700,11.620588623046874,0.0818939208984375,-0.9796600341796875,0.1310882568359375
1773251793835626500,11.63062646484375,0.0823516845703125,-0.9803314208984375,0.13330078125
1773251793845663700,11.640663818359375,0.0836639404296875,-0.982818603515625,0.1350555419921875
1773251793855700700,11.65070068359375,0.0812835693359375,-0.9853973388671875,0.13116455078125
1773251793865737700,11.66073779296875,0.08013916015625,-0.984283447265625,0.1318206787109375
1773251793875775700,11.670775634765626,0.0789947509765625,-0.987030029296875,0.1352386474609375
1773251793885812700,11.680812744140624,0.079345703125,-0.9878387451171875,0.133270263671875
1773251793895849700,11.690849609375,0.077545166015625,-0.9883575439453125,0.1336822509765625
1773251793905886700,11.70088671875,0.0783843994140625,-0.9915924072265625,0.137420654296875
1773251793915924700,11.7109248046875,0.077117919921875,-0.9893035888671875,0.138397216796875
1773251793925961700,11.720961669921875,0.07818603515625,-0.98602294921875,0.1360931396484375
1773251793935998700,11.730998779296876,0.0798797607421875,-0.9861602783203125,0.134735107421875
1773251793946035700,11.74103564453125,0.07879638671875,-0.9876251220703125,0.13336181640625
1773251793956073700,11.75107373046875,0.079437255859375,-0.9904022216796875,0.135650634765625
1773251793966110700,11.76111083984375,0.075103759765625,-0.9903106689453125,0.135955810546875
1773251793976147700,11.771147705078125,0.077850341796875,-0.9859466552734375,0.1370697021484375
1773251793986185700,11.781185791015625,0.0827178955078125,-0.982574462890625,0.1378936767578125
1773251793996222700,11.79122265625,0.0819854736328125,-0.98284912109375,0.1392822265625
1773251794006259700,11.801259765625,0.0770416259765625,-0.983917236328125,0.1394500732421875
1773251794016296700,11.811296630859376,0.0765838623046875,-0.985748291015625,0.13555908203125
1773251794026334700,11.821334716796875,0.0797576904296875,-0.9873504638671875,0.1396636962890625
1773251794036371700,11.831371826171875,0.087188720703125,-0.9850616455078125,0.1401214599609375
1773251794046408700,11.84140869140625,0.0827484130859375,-0.9852752685546875,0.1361236572265625
1773251794056445700,11.85144580078125,0.060150146484375,-0.9826202392578125,0.138153076171875
1773251794066483700,11.861483642578126,0.073455810546875,-0.9819488525390625,0.1444549560546875
1773251794076520700,11.871520751953126,0.0850372314453125,-0.985107421875,0.138336181640625
1773251794086557700,11.8815576171875,0.06512451171875,-0.9841766357421875,0.1349639892578125
1773251794096594700,11.8915947265625,0.0772857666015625,-0.983367919921875,0.1394500732421875
1773251794106632700,11.9016328125,0.0953369140625,-0.9849395751953125,0.13494873046875
1773251794116669700,11.911669677734375,0.078277587890625,-0.979736328125,0.1389923095703125
1773251794126706700,11.921706787109375,0.054901123046875,-0.9758148193359375,0.149658203125
1773251794136743700,11.93174365234375,0.0621795654296875,-0.9784088134765625,0.1535186767578125
1773251794146781700,11.94178173828125,0.0938873291015625,-0.985809326171875,0.150390625
1773251794156818700,11.951818603515624,0.10919189453125,-0.9929656982421875,0.1453704833984375
1773251794166856000,11.96185595703125,0.08837890625,-0.9944915771484375,0.1414947509765625
1773251794176893700,11.971893798828125,0.062103271484375,-0.9920654296875,0.14691162109375
1773251794186930700,11.9819306640625,0.0649871826171875,-0.9894866943359375,0.1519317626953125
1773251794196967700,11.9919677734375,0.085205078125,-0.9890594482421875,0.151031494140625
1773251794207004700,12.002004638671876,0.093170166015625,-0.987335205078125,0.1490936279296875
1773251794217042700,12.012042724609374,0.0828399658203125,-0.9878692626953125,0.1501312255859375
1773251794227079700,12.02207958984375,0.0659942626953125,-0.985382080078125,0.1506805419921875
1773251794237117000,12.032116943359375,0.060455322265625,-0.9839935302734375,0.153533935546875
1773251794247153700,12.042153564453125,0.0703887939453125,-0.9841766357421875,0.1493682861328125
1773251794257191700,12.052191650390625,0.0806884765625,-0.983673095703125,0.1472320556640625
1773251794267228700,12.062228759765626,0.081451416015625,-0.97967529296875,0.14764404296875
1773251794277265700,12.072265625,0.0765228271484375,-0.9761505126953125,0.1496124267578125
1773251794287302700,12.082302734375,0.07366943359375,-0.979095458984375,0.1515655517578125
1773251794297340700,12.092340576171875,0.0720062255859375,-0.9821014404296875,0.1515045166015625
1773251794307378000,12.1023779296875,0.073211669921875,-0.9872894287109375,0.148712158203125
1773251794317414700,12.11241455078125,0.0749053955078125,-0.9866485595703125,0.1447906494140625
1773251794327451600,12.12245166015625,0.0738067626953125,-0.983428955078125,0.14276123046875
1773251794337489700,12.13248974609375,0.078277587890625,-0.982666015625,0.140594482421875
1773251794347527000,12.14252685546875,0.0801544189453125,-0.9873199462890625,0.1461334228515625
1773251794357563600,12.152563720703125,0.0740509033203125,-0.9862823486328125,0.1497039794921875
1773251794367601700,12.1626015625,0.089019775390625,-0.9876708984375,0.1488494873046875
1773251794377639000,12.172638916015625,0.081024169921875,-0.9882354736328125,0.1468963623046875
1773251794387675600,12.182675537109375,0.0564422607421875,-0.9874267578125,0.1547393798828125
1773251794397712600,12.192712646484376,0.058929443359375,-0.986175537109375,0.1555633544921875
1773251794407750700,12.202750732421874,0.078948974609375,-0.9822845458984375,0.1522369384765625
1773251794417788000,12.212787841796874,0.0949249267578125,-0.9816131591796875,0.1506195068359375
1773251794427824600,12.22282470703125,0.0902862548828125,-0.9821319580078125,0.151336669921875
1773251794437861600,12.232861572265625,0.0789337158203125,-0.984832763671875,0.1495819091796875
1773251794447900000,12.24289990234375,0.0764312744140625,-0.986297607421875,0.1522674560546875
1773251794457936600,12.2529365234375,0.0823974609375,-0.9857330322265625,0.1548004150390625
1773251794467973600,12.2629736328125,0.08868408203125,-0.9896240234375,0.1537628173828125
1773251794478010600,12.2730107421875,0.0828094482421875,-0.992340087890625,0.1514434814453125
1773251794488049000,12.283048828125,0.0757598876953125,-0.988525390625,0.15008544921875
1773251794498085600,12.293085693359375,0.0768280029296875,-0.979339599609375,0.15057373046875
1773251794508122600,12.30312255859375,0.0843658447265625,-0.973724365234375,0.152801513671875
1773251794518159600,12.31315966796875,0.0882568359375,-0.977325439453125,0.152069091796875
1773251794528198000,12.323197998046876,0.0826568603515625,-0.98175048828125,0.1501312255859375
1773251794538234600,12.333234619140624,0.0780487060546875,-0.9858551025390625,0.1464691162109375
1773251794548271600,12.343271728515624,0.077423095703125,-0.9911651611328125,0.148895263671875
1773251794558310000,12.353309814453125,0.080810546875,-0.9924163818359375,0.151611328125
1773251794568346600,12.3633466796875,0.079864501953125,-0.9889373779296875,0.152923583984375
1773251794578383600,12.373383544921875,0.0802001953125,-0.9857940673828125,0.153594970703125
1773251794588420600,12.383420654296875,0.0830841064453125,-0.98291015625,0.1508941650390625
1773251794598459000,12.393458984375,0.0821380615234375,-0.9803924560546875,0.1484832763671875
1773251794608495600,12.40349560546875,0.0814971923828125,-0.981658935546875,0.1479339599609375
1773251794618532600,12.41353271484375,0.0821990966796875,-0.98095703125,0.1479034423828125
1773251794628569600,12.423569580078125,0.084747314453125,-0.9820709228515625,0.1492919921875
1773251794638607600,12.433607666015625,0.0825958251953125,-0.98431396484375,0.1526336669921875
1773251794648644600,12.44364453125,0.0808868408203125,-0.9883880615234375,0.151397705078125
1773251794658681600,12.453681640625,0.0817413330078125,-0.9889068603515625,0.149017333984375
1773251794668719900,12.463719970703124,0.084747314453125,-0.9849700927734375,0.150360107421875
1773251794678756600,12.473756591796874,0.0870513916015625,-0.9822540283203125,0.1484222412109375
1773251794688793600,12.483793701171875,0.0847625732421875,-0.9827117919921875,0.1448211669921875
1773251794698830800,12.493830810546875,0.084259033203125,-0.984954833984375,0.1458740234375
1773251794708868900,12.503868896484375,0.084320068359375,-0.985565185546875,0.1446685791015625
1773251794718905900,12.51390576171875,0.08612060546875,-0.9852447509765625,0.1470489501953125
1773251794728942800,12.52394287109375,0.08612060546875,-0.9837799072265625,0.1476287841796875
1773251794738979800,12.533979736328124,0.087921142578125,-0.98382568359375,0.148345947265625
1773251794749017600,12.544017578125,0.0867767333984375,-0.98406982421875,0.1486663818359375
1773251794759054800,12.554054931640625,0.0884552001953125,-0.9833526611328125,0.1524810791015625
1773251794769091800,12.564091796875,0.08978271484375,-0.9824371337890625,0.1536102294921875
1773251794779128800,12.57412890625,0.0914459228515625,-0.9859466552734375,0.15350341796875
1773251794789166800,12.584166748046876,0.0903778076171875,-0.98895263671875,0.153900146484375
1773251794799203800,12.594203857421874,0.08917236328125,-0.9904327392578125,0.1529388427734375
1773251794809240800,12.60424072265625,0.08978271484375,-0.9871673583984375,0.151519775390625
1773251794819277800,12.61427783203125,0.0917510986328125,-0.9808807373046875,0.15093994140625
1773251794829315800,12.62431591796875,0.0931854248046875,-0.976409912109375,0.1504058837890625
1773251794839352800,12.634352783203125,0.09130859375,-0.9751434326171875,0.147979736328125
1773251794849389800,12.644389892578126,0.0920257568359375,-0.9777984619140625,0.1453094482421875
1773251794859427800,12.654427734375,0.0916900634765625,-0.981689453125,0.146331787109375
1773251794869464800,12.66446484375,0.0927734375,-0.9857635498046875,0.148406982421875
1773251794879501800,12.674501708984375,0.09332275390625,-0.9862518310546875,0.1488037109375
1773251794889538800,12.684538818359375,0.0932159423828125,-0.9871063232421875,0.1489715576171875
1773251794899576800,12.694576904296875,0.094879150390625,-0.9852447509765625,0.149200439453125
1773251794909613800,12.70461376953125,0.0964202880859375,-0.9846954345703125,0.1453857421875
1773251794919650800,12.71465087890625,0.097564697265625,-0.9855804443359375,0.14117431640625
1773251794929687800,12.724687744140626,0.1053924560546875,-0.9885406494140625,0.1396026611328125
1773251794939725800,12.734725830078125,0.102813720703125,-0.9921875,0.136810302734375
1773251794949762800,12.7447626953125,0.0731353759765625,-0.986785888671875,0.1368408203125
1773251794959799800,12.7547998046875,0.076446533203125,-0.980224609375,0.141265869140625
1773251794969837800,12.764837890625,0.101593017578125,-0.9786834716796875,0.1427459716796875
1773251794979874800,12.774874755859376,0.0971527099609375,-0.977935791015625,0.140167236328125
1773251794989911800,12.784911865234376,0.097381591796875,-0.9712982177734375,0.14080810546875
1773251794999948800,12.79494873046875,0.1138153076171875,-0.9748382568359375,0.1363983154296875
1773251795009986800,12.80498681640625,0.101959228515625,-0.9788055419921875,0.133880615234375
1773251795020023800,12.81502392578125,0.0748291015625,-0.9773712158203125,0.1362457275390625
1773251795030060800,12.825060791015625,0.0753326416015625,-0.9774932861328125,0.1391143798828125
1773251795040097800,12.835097900390625,0.113922119140625,-0.9862518310546875,0.1409454345703125
1773251795050135800,12.8451357421875,0.1454925537109375,-0.988433837890625,0.1350860595703125
1773251795060172800,12.8551728515625,0.1275177001953125,-0.989776611328125,0.129730224609375
1773251795070209800,12.865209716796874,0.0931549072265625,-0.9847869873046875,0.135528564453125
1773251795080247000,12.8752470703125,0.08575439453125,-0.9851226806640625,0.1456756591796875
1773251795090284800,12.885284912109375,0.100311279296875,-0.985137939453125,0.1450958251953125
1773251795100321800,12.89532177734375,0.1123199462890625,-0.9840240478515625,0.1373291015625
1773251795110358800,12.90535888671875,0.10491943359375,-0.980865478515625,0.1333465576171875
1773251795120396800,12.915396728515624,0.0914459228515625,-0.9780120849609375,0.1347808837890625
1773251795130433800,12.925433837890624,0.083038330078125,-0.97601318359375,0.139129638671875
1773251795140470800,12.935470703125,0.093017578125,-0.9787139892578125,0.1429595947265625
1773251795150508000,12.945508056640625,0.1041107177734375,-0.984466552734375,0.142822265625
1773251795160545800,12.9555458984375,0.1111602783203125,-0.9846649169921875,0.1425628662109375
1773251795170582800,12.965582763671875,0.112762451171875,-0.9839019775390625,0.1455078125
1773251795180619800,12.975619873046876,0.109954833984375,-0.9854583740234375,0.14520263671875
1773251795190657000,12.985656982421874,0.1041412353515625,-0.989105224609375,0.14398193359375
1773251795200694800,12.99569482421875,0.1034088134765625,-0.9890899658203125,0.1470947265625
1773251795210731800,13.005731689453125,0.1060333251953125,-0.986419677734375,0.14495849609375
1773251795220769000,13.01576904296875,0.107666015625,-0.982513427734375,0.1451873779296875
1773251795230805800,13.0258056640625,0.1091766357421875,-0.9805908203125,0.14862060546875
1773251795240843800,13.03584375,0.103485107421875,-0.9785003662109375,0.152557373046875
1773251795250880800,13.045880859375,0.1074371337890625,-0.97894287109375,0.15655517578125
1773251795260918000,13.05591796875,0.1177978515625,-0.9801483154296875,0.146759033203125
1773251795270955800,13.065955810546875,0.091888427734375,-0.9789276123046875,0.1427764892578125
1773251795280992800,13.07599267578125,0.082916259765625,-0.97698974609375,0.149383544921875
1773251795291030000,13.086030029296875,0.0991058349609375,-0.9776611328125,0.151336669921875
