time,seconds_elapsed,z,y,x
1773251582282049800,0.0470498046875,-0.8109130859375,-0.5626373291015625,0.083282470703125
1773251582292086800,0.057086669921875,-0.8091278076171875,-0.560150146484375,0.067657470703125
1773251582302122800,0.067122802734375,-0.81805419921875,-0.556976318359375,0.0614166259765625
1773251582312159700,0.07715966796875,-0.84588623046875,-0.55218505859375,0.068084716796875
1773251582322196700,0.08719677734375,-0.878875732421875,-0.54571533203125,0.0691986083984375
1773251582332233700,0.097233642578125,-0.9030303955078125,-0.54083251953125,0.062957763671875
1773251582342269700,0.107269775390625,-0.9070892333984375,-0.537384033203125,0.0451507568359375
1773251582352307000,0.117306884765625,-0.8965911865234375,-0.54534912109375,0.0284576416015625
1773251582362343700,0.12734375,-0.905670166015625,-0.5582275390625,0.0216064453125
1773251582372380700,0.137380615234375,-0.903350830078125,-0.5645294189453125,0.0251312255859375
1773251582382416600,0.147416748046875,-0.901824951171875,-0.5748291015625,0.0329132080078125
1773251582392453600,0.15745361328125,-0.8664093017578125,-0.5867156982421875,0.03155517578125
1773251582402491000,0.167490966796875,-0.8783111572265625,-0.5724029541015625,0.0685272216796875
1773251582412526800,0.17752685546875,-0.8894805908203125,-0.5644073486328125,0.0946197509765625
1773251582422563800,0.187563720703125,-0.9131011962890625,-0.6712188720703125,0.1253509521484375
1773251582432600800,0.197600830078125,-0.8802642822265625,-0.6686553955078125,0.10693359375
1773251582442637600,0.207637451171875,-0.8043212890625,-0.6488037109375,0.0897216796875
1773251582452673800,0.217673828125,-0.7817535400390625,-0.695587158203125,0.048309326171875
1773251582462710800,0.227710693359375,-0.7685394287109375,-0.738128662109375,0.026275634765625
1773251582472747800,0.237747802734375,-0.744140625,-0.7189483642578125,0.0376129150390625
1773251582482784300,0.2477841796875,-0.717010498046875,-0.7004852294921875,0.035736083984375
1773251582492820200,0.2578203125,-0.712554931640625,-0.6851959228515625,0.0281829833984375
1773251582502857200,0.267857177734375,-0.72052001953125,-0.6778564453125,0.0028533935546875
1773251582512894200,0.277894287109375,-0.730621337890625,-0.673492431640625,-0.0085601806640625
1773251582522931200,0.28793115234375,-0.7324676513671875,-0.672821044921875,-0.0257568359375
1773251582532967200,0.29796728515625,-0.75958251953125,-0.662322998046875,-0.04107666015625
1773251582543004200,0.308004150390625,-0.7890625,-0.6378936767578125,-0.0507965087890625
1773251582553041200,0.318041259765625,-0.789886474609375,-0.6237945556640625,-0.065338134765625
1773251582563078100,0.328078125,-0.770965576171875,-0.626983642578125,-0.1007537841796875
1773251582573114000,0.338114013671875,-0.7607269287109375,-0.6322784423828125,-0.1378173828125
1773251582583151000,0.348151123046875,-0.7504425048828125,-0.634429931640625,-0.1631622314453125
1773251582593188000,0.35818798828125,-0.7571563720703125,-0.645233154296875,-0.1753082275390625
1773251582603225300,0.368225341796875,-0.771820068359375,-0.659698486328125,-0.156524658203125
1773251582613261300,0.37826123046875,-0.7695465087890625,-0.67864990234375,-0.1163177490234375
1773251582623298000,0.388298095703125,-0.74029541015625,-0.707183837890625,-0.0876617431640625
1773251582633335000,0.3983349609375,-0.7127838134765625,-0.745941162109375,-0.081207275390625
1773251582643372000,0.4083720703125,-0.6588897705078125,-0.7622833251953125,-0.0902099609375
1773251582653408000,0.418407958984375,-0.64208984375,-0.761871337890625,-0.089447021484375
1773251582663445200,0.4284453125,-0.6424102783203125,-0.76470947265625,-0.0728912353515625
1773251582673482200,0.438482177734375,-0.629058837890625,-0.76104736328125,-0.0550384521484375
1773251582683518200,0.448518310546875,-0.6204833984375,-0.75665283203125,-0.0545196533203125
1773251582693555200,0.45855517578125,-0.59912109375,-0.763946533203125,-0.038238525390625
1773251582703592000,0.468592041015625,-0.563934326171875,-0.7750396728515625,-0.0087127685546875
1773251582713629200,0.478629150390625,-0.581390380859375,-0.7829132080078125,0.02362060546875
1773251582723665200,0.4886650390625,-0.584716796875,-0.797698974609375,0.0117034912109375
1773251582733702100,0.4987021484375,-0.4900665283203125,-0.7844085693359375,0.0323944091796875
1773251582743739100,0.5087392578125,-0.49737548828125,-0.7990875244140625,0.0444793701171875
1773251582753776000,0.518776123046875,-0.468780517578125,-0.8227386474609375,0.067901611328125
1773251582763812000,0.52881201171875,-0.4377899169921875,-0.82769775390625,0.0948486328125
1773251582773849300,0.538849365234375,-0.4304656982421875,-0.842010498046875,0.1156768798828125
1773251582783886000,0.548885986328125,-0.4243927001953125,-0.8537445068359375,0.11358642578125
1773251582793923000,0.558923095703125,-0.398162841796875,-0.838775634765625,0.14739990234375
1773251582803959000,0.568958984375,-0.3474273681640625,-0.8575592041015625,0.1896820068359375
1773251582813996000,0.57899609375,-0.278228759765625,-0.8976287841796875,0.1728057861328125
1773251582824033300,0.589033203125,-0.1998138427734375,-0.914306640625,0.1455230712890625
1773251582834070300,0.5990703125,-0.1811676025390625,-0.9190521240234375,0.1474761962890625
1773251582844106200,0.609106201171875,-0.205780029296875,-0.90802001953125,0.1745147705078125
1773251582854143200,0.619143310546875,-0.186737060546875,-0.88568115234375,0.2265777587890625
1773251582864180000,0.629179931640625,-0.11041259765625,-0.9010162353515625,0.2452239990234375
1773251582874217200,0.63921728515625,-0.0104827880859375,-0.9389801025390625,0.23028564453125
1773251582884253200,0.649253173828125,0.07659912109375,-0.965667724609375,0.1905059814453125
1773251582894290200,0.659290283203125,0.11639404296875,-0.9681243896484375,0.1570892333984375
1773251582904327200,0.6693271484375,0.1368255615234375,-0.9452362060546875,0.1751861572265625
1773251582914363100,0.679363037109375,0.189117431640625,-0.951324462890625,0.2385711669921875
1773251582924400000,0.689400146484375,0.257904052734375,-0.9791717529296875,0.2888946533203125
1773251582934437000,0.69943701171875,0.308319091796875,-1.0008087158203125,0.3045501708984375
1773251582944474000,0.70947412109375,0.3215484619140625,-0.986236572265625,0.33489990234375
1773251582954510300,0.71951025390625,0.2618255615234375,-0.97735595703125,0.2939300537109375
1773251582964547000,0.729547119140625,0.1593475341796875,-0.968963623046875,0.2604522705078125
1773251582974584000,0.739583984375,0.1072998046875,-0.964447021484375,0.3118896484375
1773251582984621000,0.74962109375,0.13055419921875,-0.9852752685546875,0.349212646484375
1773251582994657000,0.759656982421875,0.1650543212890625,-0.97515869140625,0.2840576171875
1773251583004694300,0.7696943359375,0.1871795654296875,-0.914154052734375,0.18157958984375
1773251583014731300,0.779731201171875,0.2134857177734375,-0.8582305908203125,0.0611419677734375
1773251583024768000,0.78976806640625,0.217803955078125,-0.81939697265625,-0.0281219482421875
1773251583034804200,0.79980419921875,0.205078125,-0.760772705078125,-0.0218353271484375
1773251583044841000,0.809841064453125,0.1755523681640625,-0.770751953125,0.0061187744140625
1773251583054878200,0.819878173828125,0.1824798583984375,-0.812255859375,0.0839080810546875
1773251583064915200,0.829915283203125,0.2201995849609375,-0.921234130859375,0.1842041015625
1773251583074951200,0.839951171875,0.2567901611328125,-1.091583251953125,0.2652435302734375
1773251583084988200,0.84998828125,0.26275634765625,-1.185760498046875,0.2598419189453125
1773251583095025200,0.860025146484375,0.24627685546875,-1.17864990234375,0.220062255859375
1773251583105061000,0.87006103515625,0.206146240234375,-1.1122283935546875,0.14532470703125
1773251583115098000,0.88009814453125,0.15887451171875,-1.0318756103515625,0.102813720703125
1773251583125135000,0.890135009765625,0.186126708984375,-0.9822540283203125,0.07684326171875
1773251583135172000,0.900172119140625,0.2135467529296875,-0.977142333984375,0.06622314453125
1773251583145208000,0.9102080078125,0.1983795166015625,-0.954193115234375,0.067840576171875
1773251583155245000,0.9202451171875,0.1572418212890625,-0.90655517578125,0.0809783935546875
1773251583165282300,0.9302822265625,0.1590423583984375,-0.8998565673828125,0.10772705078125
1773251583175319300,0.9403193359375,0.183746337890625,-0.9159088134765625,0.1596832275390625
1773251583185355300,0.950355224609375,0.23779296875,-0.998748779296875,0.261199951171875
1773251583195392300,0.960392333984375,0.3145904541015625,-1.079071044921875,0.360015869140625
1773251583205429000,0.970428955078125,0.3460235595703125,-1.0260009765625,0.3012542724609375
1773251583215466200,0.98046630859375,0.3340301513671875,-0.8923492431640625,0.126800537109375
1773251583225502200,0.990502197265625,0.2824859619140625,-0.88916015625,0.1183013916015625
1773251583235539200,1.000539306640625,0.1207733154296875,-0.9556427001953125,0.276153564453125
1773251583245576200,1.010576171875,-0.01300048828125,-0.9620819091796875,0.32086181640625
1773251583255613200,1.02061328125,-0.0375213623046875,-0.941650390625,0.3296051025390625
1773251583265649200,1.030649169921875,-0.00445556640625,-0.9323883056640625,0.283477783203125
1773251583275686100,1.04068603515625,0.018280029296875,-0.95635986328125,0.088623046875
1773251583285723100,1.05072314453125,0.1109466552734375,-1.009368896484375,0.0385284423828125
1773251583295760100,1.060760009765625,0.1835784912109375,-1.044189453125,0.0024871826171875
1773251583305796000,1.070796142578125,0.2351837158203125,-1.0525665283203125,0.0099945068359375
1773251583315833000,1.0808330078125,0.1981964111328125,-1.032012939453125,0.0662078857421875
1773251583325870000,1.0908701171875,0.09844970703125,-1.0046539306640625,0.15606689453125
1773251583335907300,1.1009072265625,0.0499267578125,-0.9910430908203125,0.234375
1773251583345943300,1.110943359375,0.0684814453125,-0.9920501708984375,0.2357635498046875
1773251583355980000,1.12097998046875,0.0933990478515625,-0.992431640625,0.1988372802734375
1773251583366017000,1.13101708984375,0.1211700439453125,-0.9937591552734375,0.148651123046875
1773251583376053000,1.141052978515625,0.1533203125,-1.0093841552734375,0.0986328125
1773251583386090000,1.151090087890625,0.1531524658203125,-1.014495849609375,0.078216552734375
1773251583396127200,1.161127197265625,0.14666748046875,-1.006072998046875,0.0972900390625
1773251583406164200,1.171164306640625,0.1635894775390625,-1.00006103515625,0.1392669677734375
1773251583416200200,1.1812001953125,0.167816162109375,-1.0038909912109375,0.1761932373046875
1773251583426237200,1.1912373046875,0.165191650390625,-0.995208740234375,0.197052001953125
1773251583436274200,1.201274169921875,0.1654052734375,-0.96661376953125,0.18609619140625
1773251583446311200,1.211311279296875,0.16192626953125,-0.930877685546875,0.1639404296875
1773251583456347100,1.22134716796875,0.146026611328125,-0.910308837890625,0.1483612060546875
1773251583466384100,1.231384033203125,0.147247314453125,-0.9116668701171875,0.1259765625
1773251583476421000,1.241421142578125,0.159332275390625,-0.9201202392578125,0.1074371337890625
1773251583486458400,1.251458251953125,0.1628570556640625,-0.9392852783203125,0.097320556640625
1773251583496494300,1.261494384765625,0.176666259765625,-0.9613800048828125,0.0934600830078125
1773251583506531300,1.27153125,0.190399169921875,-0.993927001953125,0.09698486328125
1773251583516568000,1.281568115234375,0.192718505859375,-1.0175628662109375,0.096923828125
1773251583526604300,1.291604248046875,0.175933837890625,-1.0180816650390625,0.0997314453125
1773251583536641300,1.301641357421875,0.146942138671875,-1.00396728515625,0.108123779296875
1773251583546678300,1.31167822265625,0.1361541748046875,-0.988739013671875,0.1088104248046875
1773251583556715300,1.32171533203125,0.1467132568359375,-0.9728851318359375,0.105255126953125
1773251583566751200,1.331751220703125,0.16943359375,-0.97137451171875,0.099761962890625
1773251583576788200,1.341788330078125,0.1676788330078125,-0.985809326171875,0.0928192138671875
1773251583586825500,1.351825439453125,0.1447601318359375,-1.0007171630859375,0.0962371826171875
1773251583596862200,1.3618623046875,0.1260223388671875,-0.997039794921875,0.09716796875
1773251583606898400,1.3718984375,0.1217041015625,-0.9796600341796875,0.0915374755859375
1773251583616935200,1.38193505859375,0.142181396484375,-0.9734954833984375,0.07757568359375
1773251583626972200,1.39197216796875,0.166748046875,-0.985137939453125,0.04791259765625
1773251583637009400,1.402009521484375,0.152374267578125,-0.9833221435546875,0.023040771484375
1773251583647045400,1.41204541015625,0.1399078369140625,-0.9654083251953125,0.0190277099609375
1773251583657082400,1.422082275390625,0.1630706787109375,-0.9549102783203125,0.047088623046875
1773251583667119400,1.432119384765625,0.1665802001953125,-0.94970703125,0.085235595703125
1773251583677156000,1.442156005859375,0.151397705078125,-0.9556427001953125,0.0977783203125
1773251583687192300,1.4521923828125,0.1386566162109375,-0.9652862548828125,0.083465576171875
1773251583697229300,1.462229248046875,0.12005615234375,-0.96954345703125,0.0746612548828125
1773251583707266300,1.472266357421875,0.1088714599609375,-0.98052978515625,0.083740234375
1773251583717302300,1.48230224609375,0.094757080078125,-0.9832763671875,0.1204986572265625
1773251583727339300,1.49233935546875,0.0587921142578125,-0.966522216796875,0.17974853515625
1773251583737376300,1.502376220703125,0.01947021484375,-0.9640045166015625,0.2279510498046875
1773251583747413500,1.51241357421875,0.015380859375,-0.981964111328125,0.24090576171875
1773251583757449500,1.522449462890625,0.07135009765625,-1.0009307861328125,0.231689453125
1773251583767486200,1.532486328125,0.1286163330078125,-1.0073699951171875,0.2057342529296875
1773251583777523200,1.542523193359375,0.1495819091796875,-1.01092529296875,0.164520263671875
1773251583787560200,1.552560302734375,0.1462249755859375,-1.017547607421875,0.1256866455078125
1773251583797596200,1.56259619140625,0.1527557373046875,-1.0216827392578125,0.0967254638671875
1773251583807633200,1.572633056640625,0.1505889892578125,-1.0198211669921875,0.094970703125
1773251583817670400,1.58267041015625,0.12750244140625,-1.022705078125,0.1180419921875
1773251583827707400,1.592707275390625,0.095428466796875,-1.012908935546875,0.1309661865234375
1773251583837743400,1.602743408203125,0.0572052001953125,-0.9994049072265625,0.1371612548828125
1773251583847780400,1.6127802734375,0.0325775146484375,-0.9830169677734375,0.1364898681640625
1773251583857817000,1.622817138671875,0.0277862548828125,-0.9540557861328125,0.132598876953125
1773251583867853000,1.63285302734375,0.0398406982421875,-0.9389495849609375,0.1160125732421875
1773251583877890300,1.642890380859375,0.0629425048828125,-0.9252471923828125,0.0983734130859375
1773251583887927300,1.65292724609375,0.08502197265625,-0.932220458984375,0.0907745361328125
1773251583897964300,1.66296435546875,0.1116180419921875,-0.959716796875,0.0973968505859375
1773251583908000300,1.673000244140625,0.1068572998046875,-0.9915313720703125,0.1206207275390625
1773251583918037200,1.683037353515625,0.0755767822265625,-1.0072784423828125,0.1526641845703125
1773251583928074200,1.69307421875,0.042633056640625,-1.0092315673828125,0.1744384765625
1773251583938111200,1.703111328125,0.037994384765625,-1.007171630859375,0.1746978759765625
1773251583948147200,1.713147216796875,0.053985595703125,-0.9979400634765625,0.163543701171875
1773251583958184200,1.72318408203125,0.079254150390625,-0.9788970947265625,0.1430511474609375
1773251583968221200,1.73322119140625,0.0929412841796875,-0.9573211669921875,0.1248779296875
1773251583978257200,1.743257080078125,0.0909881591796875,-0.9552154541015625,0.1150665283203125
1773251583988294400,1.75329443359375,0.08880615234375,-0.9716339111328125,0.110321044921875
1773251583998331400,1.763331298828125,0.078704833984375,-0.9864959716796875,0.1229705810546875
1773251584008368000,1.7733681640625,0.082489013671875,-0.989288330078125,0.140167236328125
1773251584018404400,1.783404296875,0.1002197265625,-1.0006103515625,0.132659912109375
1773251584028441000,1.793441162109375,0.1103057861328125,-1.0067138671875,0.1247711181640625
1773251584038478300,1.803478271484375,0.099365234375,-0.9981231689453125,0.1327362060546875
1773251584048515300,1.813515380859375,0.0622406005859375,-0.9840240478515625,0.1399688720703125
1773251584058551300,1.82355126953125,0.0342559814453125,-0.975067138671875,0.1317901611328125
1773251584068588300,1.83358837890625,0.02239990234375,-0.9772796630859375,0.1271209716796875
1773251584078625300,1.843625244140625,0.0098724365234375,-0.9794769287109375,0.143890380859375
1773251584088662300,1.853662353515625,-0.0083465576171875,-0.980438232421875,0.1776275634765625
1773251584098698500,1.863698486328125,-0.014739990234375,-0.9916839599609375,0.2082061767578125
1773251584108735200,1.8737353515625,-0.015716552734375,-1.02001953125,0.218536376953125
1773251584118772200,1.883772216796875,-0.006378173828125,-1.0432891845703125,0.19769287109375
1773251584128808200,1.89380810546875,0.0154876708984375,-1.033111572265625,0.173980712890625
1773251584138845200,1.90384521484375,0.0254058837890625,-1.0065765380859375,0.16925048828125
1773251584148882400,1.91388232421875,0.030731201171875,-0.9735107421875,0.169219970703125
1773251584158919400,1.92391943359375,0.0477752685546875,-0.9544219970703125,0.148834228515625
1773251584168955400,1.933955322265625,0.0613250732421875,-0.9592742919921875,0.1139984130859375
1773251584178992400,1.943992431640625,0.0578765869140625,-0.97271728515625,0.103240966796875
1773251584189029000,1.954029052734375,0.0455474853515625,-0.9839324951171875,0.1095733642578125
1773251584199066000,1.964066162109375,0.0333404541015625,-0.98638916015625,0.1253204345703125
1773251584209102300,1.974102294921875,0.0293731689453125,-0.980255126953125,0.147064208984375
1773251584219139300,1.984139404296875,0.0319366455078125,-0.9716796875,0.1564483642578125
1773251584229176300,1.99417626953125,0.03118896484375,-0.9627838134765625,0.15447998046875
1773251584239212300,2.00421240234375,0.0336761474609375,-0.95306396484375,0.1593475341796875
1773251584249249300,2.014249267578125,0.0434722900390625,-0.9520416259765625,0.1720428466796875
1773251584259286300,2.024286376953125,0.055999755859375,-0.9652862548828125,0.1845245361328125
1773251584269323300,2.0343232421875,0.0645599365234375,-0.984100341796875,0.185150146484375
1773251584279359200,2.044359130859375,0.0524749755859375,-0.9971771240234375,0.1793365478515625
1773251584289396200,2.054396240234375,0.0362701416015625,-1.0000762939453125,0.1704864501953125
1773251584299433200,2.06443310546875,0.0372314453125,-1.0015869140625,0.1597137451171875
1773251584309470200,2.07447021484375,0.044708251953125,-0.996826171875,0.154998779296875
1773251584319506200,2.084506103515625,0.0430450439453125,-0.9926910400390625,0.1595916748046875
1773251584329543400,2.09454345703125,0.039520263671875,-0.9903717041015625,0.161102294921875
1773251584339580400,2.104580322265625,0.0538177490234375,-0.9883270263671875,0.1508331298828125
1773251584349617200,2.1146171875,0.0674896240234375,-0.9894866943359375,0.1494293212890625
1773251584359653000,2.124653076171875,0.0579376220703125,-0.991668701171875,0.15093994140625
1773251584369690000,2.134690185546875,0.040802001953125,-0.9921875,0.1516876220703125
1773251584379727400,2.144727294921875,0.0325469970703125,-0.9851531982421875,0.16143798828125
1773251584389763300,2.154763427734375,0.0330352783203125,-0.98248291015625,0.1645965576171875
1773251584399800300,2.16480029296875,0.0439605712890625,-0.982696533203125,0.1630706787109375
1773251584409837300,2.17483740234375,0.0499420166015625,-0.9808349609375,0.1575927734375
1773251584419874300,2.184874267578125,0.050628662109375,-0.9828643798828125,0.149505615234375
1773251584429910300,2.19491015625,0.0516204833984375,-0.9844207763671875,0.1492767333984375
1773251584439947300,2.204947265625,0.0486907958984375,-0.9790496826171875,0.1560516357421875
1773251584449984300,2.214984375,0.0504302978515625,-0.980712890625,0.160980224609375
1773251584460021200,2.225021240234375,0.055084228515625,-0.9826202392578125,0.1662139892578125
1773251584470057200,2.23505712890625,0.0576324462890625,-0.984222412109375,0.1614532470703125
1773251584480094200,2.24509423828125,0.0576171875,-0.9862518310546875,0.1537322998046875
1773251584490131500,2.25513134765625,0.0587921142578125,-0.9887847900390625,0.1536865234375
1773251584500167400,2.26516748046875,0.0508880615234375,-0.9873199462890625,0.1591644287109375
1773251584510204700,2.27520458984375,0.053558349609375,-0.98992919921875,0.1595458984375
1773251584520241400,2.285241455078125,0.067169189453125,-0.9940338134765625,0.1549835205078125
1773251584530278400,2.2952783203125,0.0553131103515625,-0.9947357177734375,0.150054931640625
1773251584540314400,2.305314453125,0.02154541015625,-0.989990234375,0.1509246826171875
1773251584550351400,2.315351318359375,0.026519775390625,-0.9827117919921875,0.1577301025390625
1773251584560388400,2.325388427734375,0.0826568603515625,-0.983795166015625,0.1583251953125
1773251584570425600,2.335425537109375,0.0891265869140625,-0.9859161376953125,0.1544647216796875
1773251584580461600,2.345461669921875,0.061431884765625,-0.9851531982421875,0.15130615234375
1773251584590498600,2.35549853515625,0.040283203125,-0.9822540283203125,0.152252197265625
1773251584600535300,2.365535400390625,0.0395355224609375,-0.978515625,0.1574859619140625
1773251584610571300,2.3755712890625,0.05389404296875,-0.9801788330078125,0.164794921875
1773251584620608300,2.385608154296875,0.0704193115234375,-0.9833526611328125,0.163665771484375
1773251584630645500,2.3956455078125,0.0815887451171875,-0.9885406494140625,0.1559600830078125
1773251584640682500,2.4056826171875,0.0687408447265625,-0.9908905029296875,0.14678955078125
1773251584650718500,2.415718505859375,0.0520782470703125,-0.9864654541015625,0.143218994140625
1773251584660755500,2.42575537109375,0.0596923828125,-0.9833526611328125,0.1445465087890625
1773251584670792400,2.43579248046875,0.0751190185546875,-0.9802093505859375,0.1524658203125
1773251584680829400,2.445829345703125,0.0775604248046875,-0.9776153564453125,0.1569061279296875
1773251584690865400,2.455865478515625,0.067474365234375,-0.9785919189453125,0.161895751953125
1773251584700902400,2.46590234375,0.0580596923828125,-0.9821014404296875,0.16326904296875
1773251584710939400,2.475939453125,0.0487213134765625,-0.9851837158203125,0.1609954833984375
1773251584720975400,2.485975341796875,0.051025390625,-0.99169921875,0.1517486572265625
1773251584731012400,2.496012451171875,0.059356689453125,-0.9923248291015625,0.1404266357421875
1773251584741049600,2.506049560546875,0.0675811767578125,-0.9865875244140625,0.145599365234375
1773251584751086600,2.516086669921875,0.074859619140625,-0.9779815673828125,0.1491851806640625
1773251584761122600,2.52612255859375,0.07781982421875,-0.9807891845703125,0.155792236328125
1773251584771159300,2.5361591796875,0.080230712890625,-0.98974609375,0.16180419921875
1773251584781196300,2.5461962890625,0.0771331787109375,-0.9949493408203125,0.1646270751953125
1773251584791233500,2.556233642578125,0.0702362060546875,-0.9964599609375,0.1630401611328125
1773251584801269500,2.56626953125,0.0612335205078125,-0.99285888671875,0.15850830078125
1773251584811306500,2.576306396484375,0.0484161376953125,-0.988067626953125,0.15887451171875
1773251584821343500,2.586343505859375,0.071258544921875,-0.983306884765625,0.15570068359375
1773251584831379500,2.59637939453125,0.068817138671875,-0.9789886474609375,0.14788818359375
1773251584841416400,2.60641650390625,0.0528564453125,-0.9753875732421875,0.148193359375
1773251584851453400,2.616453369140625,0.055938720703125,-0.9780120849609375,0.154998779296875
1773251584861490400,2.626490478515625,0.0670166015625,-0.9748687744140625,0.16107177734375
1773251584871526400,2.6365263671875,0.0683441162109375,-0.9766082763671875,0.1641693115234375
1773251584881563400,2.6465634765625,0.0639495849609375,-0.9805908203125,0.1614227294921875
1773251584891600400,2.656600341796875,0.065521240234375,-0.9879608154296875,0.153656005859375
1773251584901637600,2.6666376953125,0.0691680908203125,-0.9878692626953125,0.153228759765625
1773251584911673600,2.676673583984375,0.07562255859375,-0.9853057861328125,0.159515380859375
1773251584921710600,2.686710693359375,0.0751953125,-0.9857330322265625,0.15875244140625
1773251584931747300,2.696747314453125,0.0688323974609375,-0.9891815185546875,0.1551361083984375
1773251584941783600,2.706783447265625,0.0634918212890625,-0.9876251220703125,0.1521148681640625
1773251584951820300,2.7168203125,0.067535400390625,-0.9866943359375,0.1529083251953125
1773251584961857500,2.726857421875,0.07623291015625,-0.9823760986328125,0.153228759765625
1773251584971894500,2.73689453125,0.080230712890625,-0.9791717529296875,0.1537017822265625
1773251584981930500,2.746930419921875,0.0796661376953125,-0.978485107421875,0.1530303955078125
1773251584991967500,2.756967529296875,0.0781402587890625,-0.9797821044921875,0.1539154052734375
1773251585002004500,2.76700439453125,0.074188232421875,-0.9793243408203125,0.1551361083984375
1773251585012041200,2.777041259765625,0.0737762451171875,-0.9790191650390625,0.15576171875
1773251585022077400,2.787077392578125,0.0712127685546875,-0.9798583984375,0.15325927734375
1773251585032114400,2.797114501953125,0.071929931640625,-0.982147216796875,0.1481781005859375
1773251585042151400,2.8071513671875,0.0811004638671875,-0.9815826416015625,0.1476593017578125
1773251585052188400,2.8171884765625,0.08685302734375,-0.9775390625,0.1528472900390625
1773251585062224400,2.827224365234375,0.084808349609375,-0.97723388671875,0.158355712890625
1773251585072261400,2.837261474609375,0.0781402587890625,-0.9822235107421875,0.1633758544921875
1773251585082298600,2.847298583984375,0.0727996826171875,-0.9886322021484375,0.1593475341796875
1773251585092334600,2.85733447265625,0.072418212890625,-0.9895172119140625,0.152618408203125
1773251585102371300,2.867371337890625,0.0759429931640625,-0.98895263671875,0.147003173828125
1773251585112408300,2.877408203125,0.079010009765625,-0.986358642578125,0.1451873779296875
1773251585122445300,2.8874453125,0.0845489501953125,-0.9795074462890625,0.1482086181640625
1773251585132481300,2.897481201171875,0.082122802734375,-0.97808837890625,0.1540679931640625
1773251585142518500,2.9075185546875,0.074371337890625,-0.981292724609375,0.15753173828125
1773251585152555500,2.917555419921875,0.074432373046875,-0.9840850830078125,0.15789794921875
1773251585162591500,2.927591552734375,0.077178955078125,-0.981964111328125,0.1607818603515625
1773251585172628500,2.93762841796875,0.0794219970703125,-0.9798431396484375,0.160491943359375
1773251585182665500,2.94766552734375,0.0818939208984375,-0.980072021484375,0.1563262939453125
1773251585192702500,2.957702392578125,0.082000732421875,-0.9829254150390625,0.155853271484375
1773251585202738400,2.967738525390625,0.082061767578125,-0.98333740234375,0.153533935546875
1773251585212775400,2.977775390625,0.0804443359375,-0.983062744140625,0.1535186767578125
1773251585222812400,2.9878125,0.0827484130859375,-0.9826507568359375,0.1528778076171875
1773251585232849400,2.997849365234375,0.08209228515625,-0.981536865234375,0.154510498046875
1773251585242885400,3.007885498046875,0.0796661376953125,-0.9772186279296875,0.1541595458984375
1773251585252922600,3.017922607421875,0.0782470703125,-0.9758758544921875,0.1516571044921875
1773251585262959400,3.02795947265625,0.0777130126953125,-0.980621337890625,0.1492919921875
1773251585272995600,3.03799560546875,0.076141357421875,-0.9822998046875,0.147430419921875
1773251585283032300,3.0480322265625,0.0750579833984375,-0.9851531982421875,0.14752197265625
1773251585293069300,3.0580693359375,0.0764312744140625,-0.9863128662109375,0.1472320556640625
1773251585303106600,3.0681064453125,0.0824737548828125,-0.9835968017578125,0.1489105224609375
1773251585313142500,3.078142578125,0.0867767333984375,-0.9796142578125,0.1519012451171875
1773251585323179500,3.088179443359375,0.0879669189453125,-0.97796630859375,0.15093994140625
1773251585333216500,3.098216552734375,0.1007843017578125,-0.97857666015625,0.1490325927734375
1773251585343253200,3.108253173828125,0.0759124755859375,-0.9766693115234375,0.1551055908203125
1773251585353289500,3.11828955078125,0.0236358642578125,-0.9732666015625,0.1605682373046875
1773251585363326500,3.128326416015625,0.0566253662109375,-0.9777374267578125,0.1592254638671875
1773251585373363500,3.138363525390625,0.1207275390625,-0.989532470703125,0.1505279541015625
1773251585383399400,3.1483994140625,0.111297607421875,-0.99261474609375,0.141387939453125
1773251585393436400,3.1584365234375,0.0722503662109375,-0.9837493896484375,0.1461029052734375
1773251585403473400,3.168473388671875,0.058441162109375,-0.979217529296875,0.15045166015625
1773251585413510700,3.1785107421875,0.072265625,-0.976165771484375,0.151153564453125
1773251585423546600,3.188546630859375,0.0876617431640625,-0.9728546142578125,0.15362548828125
1773251585433583600,3.19858349609375,0.092987060546875,-0.9783782958984375,0.15484619140625
1773251585443620400,3.208620361328125,0.0964813232421875,-0.986907958984375,0.1548919677734375
1773251585453657300,3.2186572265625,0.089569091796875,-0.9886474609375,0.1510162353515625
1773251585463693300,3.228693359375,0.069183349609375,-0.9867706298828125,0.1522369384765625
1773251585473730300,3.238730224609375,0.066162109375,-0.98468017578125,0.1525421142578125
1773251585483767600,3.248767578125,0.07904052734375,-0.98358154296875,0.1555938720703125
1773251585493804000,3.258803955078125,0.0888824462890625,-0.9817657470703125,0.157318115234375
1773251585503841000,3.268841064453125,0.0894927978515625,-0.9781036376953125,0.1553497314453125
1773251585513877800,3.278877685546875,0.080718994140625,-0.9776611328125,0.1498870849609375
1773251585523915000,3.2889150390625,0.069580078125,-0.9822998046875,0.1494140625
1773251585533951000,3.298950927734375,0.06512451171875,-0.9835357666015625,0.1491241455078125
1773251585543988000,3.308988037109375,0.0711669921875,-0.9830474853515625,0.1514739990234375
1773251585554025000,3.31902490234375,0.0729827880859375,-0.9833526611328125,0.1534271240234375
1773251585564062000,3.32906201171875,0.0756988525390625,-0.9862518310546875,0.1534423828125
1773251585574098000,3.339097900390625,0.0783843994140625,-0.9923248291015625,0.156890869140625
1773251585584135200,3.34913525390625,0.077362060546875,-0.99176025390625,0.156005859375
1773251585594172000,3.359171875,0.0758514404296875,-0.9895477294921875,0.1529083251953125
1773251585604207900,3.369207763671875,0.0764007568359375,-0.9865264892578125,0.14801025390625
1773251585614244900,3.379244873046875,0.076690673828125,-0.983795166015625,0.1467437744140625
1773251585624281900,3.38928173828125,0.0663604736328125,-0.9835968017578125,0.145904541015625
1773251585634318800,3.39931884765625,0.0725250244140625,-0.9869537353515625,0.14691162109375
1773251585644355000,3.40935498046875,0.0913543701171875,-0.986175537109375,0.1461944580078125
1773251585654392000,3.41939208984375,0.0705108642578125,-0.9854278564453125,0.1484222412109375
1773251585664429000,3.429428955078125,0.059814453125,-0.983367919921875,0.1543121337890625
1773251585674465800,3.4394658203125,0.0628509521484375,-0.9801788330078125,0.158721923828125
1773251585684501800,3.449501708984375,0.0706787109375,-0.9811859130859375,0.157501220703125
1773251585694538800,3.459538818359375,0.07330322265625,-0.9838104248046875,0.15191650390625
1773251585704576000,3.469575927734375,0.06805419921875,-0.9858856201171875,0.1461944580078125
1773251585714612000,3.479612060546875,0.070404052734375,-0.986175537109375,0.1461029052734375
1773251585724649000,3.48964892578125,0.0764923095703125,-0.985443115234375,0.1526641845703125
1773251585734686000,3.49968603515625,0.0814208984375,-0.98577880859375,0.1547698974609375
1773251585744723000,3.509722900390625,0.077392578125,-0.9864501953125,0.149871826171875
1773251585754759000,3.519759033203125,0.07354736328125,-0.987335205078125,0.1496124267578125
1773251585764796000,3.5297958984375,0.070220947265625,-0.987518310546875,0.1513824462890625
1773251585774833000,3.5398330078125,0.0665283203125,-0.9876708984375,0.151031494140625
1773251585784868900,3.549868896484375,0.0665740966796875,-0.984954833984375,0.1503143310546875
1773251585794905900,3.55990576171875,0.06988525390625,-0.9812774658203125,0.149749755859375
1773251585804942800,3.56994287109375,0.0749969482421875,-0.981231689453125,0.1492462158203125
1773251585814980000,3.57997998046875,0.0801544189453125,-0.982330322265625,0.1438751220703125
1773251585825016000,3.59001611328125,0.0821990966796875,-0.9826507568359375,0.1456451416015625
1773251585835053000,3.600052978515625,0.0772705078125,-0.985870361328125,0.1500396728515625
1773251585845089800,3.61008984375,0.0743865966796875,-0.9894561767578125,0.1490478515625
1773251585855126800,3.620126708984375,0.068817138671875,-0.9894866943359375,0.152069091796875
1773251585865162800,3.630162841796875,0.0684661865234375,-0.9859619140625,0.154449462890625
1773251585875200000,3.640199951171875,0.07183837890625,-0.98828125,0.149566650390625
1773251585885237000,3.650237060546875,0.0774688720703125,-0.985382080078125,0.1473236083984375
1773251585895273000,3.66027294921875,0.0778656005859375,-0.9829864501953125,0.1472930908203125
1773251585905310000,3.67031005859375,0.0763092041015625,-0.9847869873046875,0.146881103515625
1773251585915347000,3.680346923828125,0.071807861328125,-0.9842681884765625,0.149993896484375
1773251585925384000,3.690384033203125,0.0709686279296875,-0.9842987060546875,0.1497344970703125
1773251585935420200,3.700420166015625,0.0688018798828125,-0.9889068603515625,0.1493072509765625
1773251585945457000,3.710456787109375,0.0666961669921875,-0.986846923828125,0.1491241455078125
1773251585955494000,3.720493896484375,0.0709075927734375,-0.9845733642578125,0.1529388427734375
1773251585965531000,3.73053076171875,0.07666015625,-0.9815521240234375,0.150360107421875
1773251585975566800,3.74056689453125,0.0789337158203125,-0.982513427734375,0.1471405029296875
1773251585985604000,3.75060400390625,0.076568603515625,-0.984954833984375,0.1475067138671875
1773251585995641000,3.76064111328125,0.0729522705078125,-0.98583984375,0.148101806640625
1773251586005677000,3.770677001953125,0.0702972412109375,-0.984405517578125,0.1509246826171875
1773251586015714000,3.780714111328125,0.072052001953125,-0.9824981689453125,0.1522216796875
1773251586025750800,3.790750732421875,0.07318115234375,-0.9834136962890625,0.151336669921875
1773251586035788000,3.8007880859375,0.0714111328125,-0.9847259521484375,0.1523590087890625
1773251586045824000,3.810823974609375,0.0713958740234375,-0.9837493896484375,0.1522979736328125
1773251586055861000,3.820861083984375,0.0694732666015625,-0.9813232421875,0.1502532958984375
1773251586065898000,3.83089794921875,0.070068359375,-0.9800262451171875,0.1523284912109375
1773251586075935000,3.84093505859375,0.073760986328125,-0.97991943359375,0.1542816162109375
1773251586085971000,3.850970947265625,0.0711669921875,-0.9814300537109375,0.155303955078125
1773251586096008000,3.861008056640625,0.0714874267578125,-0.984893798828125,0.154083251953125
1773251586106045000,3.871044921875,0.0729522705078125,-0.9857330322265625,0.156829833984375
1773251586116081000,3.881080810546875,0.073333740234375,-0.987152099609375,0.1538848876953125
1773251586126118000,3.891117919921875,0.073150634765625,-0.9885101318359375,0.149169921875
1773251586136155000,3.90115478515625,0.0714111328125,-0.9870452880859375,0.147430419921875
1773251586146192000,3.91119189453125,0.0704803466796875,-0.984375,0.1534576416015625
1773251586156227800,3.921227783203125,0.0749969482421875,-0.983612060546875,0.1542510986328125
1773251586166265000,3.93126513671875,0.0839080810546875,-0.98272705078125,0.1504058837890625
1773251586176302000,3.941302001953125,0.06427001953125,-0.9812469482421875,0.1489105224609375
1773251586186338800,3.9513388671875,0.0547943115234375,-0.983001708984375,0.1496734619140625
1773251586196374800,3.961374755859375,0.06378173828125,-0.983978271484375,0.1526641845703125
1773251586206411800,3.971411865234375,0.075469970703125,-0.984283447265625,0.15167236328125
1773251586216449000,3.981448974609375,0.077362060546875,-0.983306884765625,0.150421142578125
1773251586226485000,3.991485107421875,0.083343505859375,-0.98541259765625,0.1502685546875
1773251586236522000,4.00152197265625,0.0750885009765625,-0.9868621826171875,0.15057373046875
1773251586246559000,4.01155908203125,0.0661468505859375,-0.9811248779296875,0.15234375
1773251586256596000,4.021595947265625,0.073150634765625,-0.97821044921875,0.157470703125
1773251586266632000,4.0316318359375,0.0924530029296875,-0.9813385009765625,0.1564483642578125
1773251586276669000,4.0416689453125,0.0968780517578125,-0.986236572265625,0.149810791015625
1773251586286706000,4.051705810546875,0.074493408203125,-0.98614501953125,0.1439666748046875
1773251586296742000,4.061741943359375,0.0597381591796875,-0.9854278564453125,0.14886474609375
1773251586306779000,4.07177880859375,0.0683135986328125,-0.9849853515625,0.15081787109375
1773251586316816000,4.08181591796875,0.0802001953125,-0.9822235107421875,0.1514892578125
1773251586326853000,4.09185302734375,0.0842742919921875,-0.97943115234375,0.1472015380859375
1773251586336889000,4.10188916015625,0.07806396484375,-0.9819488525390625,0.14990234375
1773251586346926000,4.111926025390625,0.0667724609375,-0.98333740234375,0.154815673828125
1773251586356962800,4.121962890625,0.062408447265625,-0.983734130859375,0.1536102294921875
1773251586366999800,4.131999755859375,0.0653533935546875,-0.9811553955078125,0.152008056640625
1773251586377035800,4.142035888671875,0.0738372802734375,-0.98175048828125,0.1505279541015625
1773251586387073000,4.152072998046875,0.0756378173828125,-0.98406982421875,0.146392822265625
1773251586397110000,4.162110107421875,0.0738067626953125,-0.9864349365234375,0.145233154296875
1773251586407146000,4.17214599609375,0.0714569091796875,-0.9869384765625,0.1479034423828125
1773251586417183000,4.182182861328125,0.0715484619140625,-0.983489990234375,0.1511993408203125
1773251586427220000,4.192219970703125,0.0747222900390625,-0.98291015625,0.1566619873046875
1773251586437257000,4.202257080078125,0.077117919921875,-0.9862060546875,0.1556549072265625
1773251586447293000,4.21229296875,0.07696533203125,-0.9901123046875,0.1537933349609375
1773251586457330000,4.222329833984375,0.075531005859375,-0.993133544921875,0.1534881591796875
1773251586467367000,4.232366943359375,0.072998046875,-0.9929351806640625,0.1511993408203125
1773251586477404000,4.24240380859375,0.06524658203125,-0.9884796142578125,0.1497344970703125
1773251586487439600,4.252439697265625,0.0787353515625,-0.987457275390625,0.1523284912109375
1773251586497476600,4.2624765625,0.0858917236328125,-0.984039306640625,0.15277099609375
1773251586507513900,4.272513916015625,0.0624847412109375,-0.9778900146484375,0.1547393798828125
1773251586517549800,4.2825498046875,0.0557403564453125,-0.9801788330078125,0.1565093994140625
1773251586527586800,4.2925869140625,0.0675201416015625,-0.9785919189453125,0.157867431640625
1773251586537623600,4.30262353515625,0.08050537109375,-0.978271484375,0.156890869140625
1773251586547660500,4.31266064453125,0.0832672119140625,-0.9805145263671875,0.151123046875
1773251586557696500,4.322696533203125,0.07818603515625,-0.9815826416015625,0.148773193359375
1773251586567733800,4.332733642578125,0.0773468017578125,-0.9813690185546875,0.1495513916015625
1773251586577770800,4.342770751953125,0.081756591796875,-0.9825439453125,0.1529388427734375
1773251586587806700,4.352806640625,0.0788116455078125,-0.9861907958984375,0.15216064453125
1773251586597843700,4.36284375,0.071380615234375,-0.989501953125,0.15130615234375
1773251586607880700,4.372880615234375,0.067626953125,-0.9884185791015625,0.1504364013671875
1773251586617917700,4.382917724609375,0.07269287109375,-0.9825286865234375,0.1507568359375
1773251586627953700,4.39295361328125,0.076385498046875,-0.97882080078125,0.1512908935546875
1773251586637990700,4.40299072265625,0.0749664306640625,-0.979766845703125,0.1477203369140625
1773251586648027600,4.413027587890625,0.0765838623046875,-0.979888916015625,0.1462554931640625
1773251586658064600,4.423064697265625,0.07452392578125,-0.9840087890625,0.1490478515625
1773251586668100600,4.4331005859375,0.0735321044921875,-0.9878997802734375,0.15167236328125
1773251586678137900,4.443137939453125,0.07452392578125,-0.98907470703125,0.1543121337890625
1773251586688174800,4.4531748046875,0.0746612548828125,-0.9856719970703125,0.1551666259765625
1773251586698210800,4.4632109375,0.074615478515625,-0.98199462890625,0.154815673828125
1773251586708247600,4.47324755859375,0.0752716064453125,-0.9791259765625,0.1537933349609375
1773251586718284500,4.483284423828125,0.075897216796875,-0.9820404052734375,0.1518096923828125
1773251586728321800,4.49332177734375,0.075164794921875,-0.986602783203125,0.1473541259765625
1773251586738357800,4.503357666015625,0.075164794921875,-0.989166259765625,0.1458892822265625
1773251586748394800,4.513394775390625,0.075225830078125,-0.98919677734375,0.1466217041015625
1773251586758431700,4.523431640625,0.0765228271484375,-0.98638916015625,0.148101806640625
1773251586768468700,4.53346875,0.0730743408203125,-0.9805755615234375,0.1514434814453125
1773251586778504700,4.543504638671875,0.0712890625,-0.977569580078125,0.152679443359375
1773251586788541700,4.553541748046875,0.072845458984375,-0.9797210693359375,0.150970458984375
1773251586798578700,4.56357861328125,0.071868896484375,-0.9800872802734375,0.147552490234375
1773251586808614700,4.57361474609375,0.0743408203125,-0.9843292236328125,0.1474761962890625
1773251586818651600,4.583651611328125,0.0768585205078125,-0.98553466796875,0.14752197265625
1773251586828688600,4.593688720703125,0.078765869140625,-0.9856109619140625,0.1471099853515625
1773251586838726000,4.603725830078125,0.0738372802734375,-0.9849853515625,0.149322509765625
1773251586848761900,4.613761962890625,0.0699920654296875,-0.9832305908203125,0.1506500244140625
1773251586858798800,4.623798828125,0.0685882568359375,-0.9811248779296875,0.1525115966796875
1773251586868835600,4.633835693359375,0.06988525390625,-0.9815673828125,0.152130126953125
1773251586878871600,4.64387158203125,0.074859619140625,-0.9836578369140625,0.153289794921875
1773251586888908500,4.653908447265625,0.078125,-0.9834442138671875,0.1492462158203125
1773251586898945800,4.66394580078125,0.076080322265625,-0.982635498046875,0.1480712890625
1773251586908982800,4.673982666015625,0.0738525390625,-0.98419189453125,0.150115966796875
1773251586919018800,4.684018798828125,0.0733795166015625,-0.9871673583984375,0.1474151611328125
1773251586929055700,4.6940556640625,0.070526123046875,-0.98828125,0.1514434814453125
1773251586939092700,4.7040927734375,0.068115234375,-0.98553466796875,0.152130126953125
1773251586949129500,4.71412939453125,0.0660400390625,-0.9844207763671875,0.1522674560546875
1773251586959165700,4.724165771484375,0.0646820068359375,-0.9852752685546875,0.150421142578125
1773251586969202700,4.73420263671875,0.06494140625,-0.9846343994140625,0.1549072265625
1773251586979239700,4.74423974609375,0.0717926025390625,-0.987518310546875,0.1548919677734375
1773251586989275600,4.754275634765625,0.0789337158203125,-0.9865264892578125,0.147491455078125
1773251586999312600,4.764312744140625,0.07623291015625,-0.9849700927734375,0.143890380859375
1773251587009349600,4.774349609375,0.0707855224609375,-0.98358154296875,0.149139404296875
1773251587019387000,4.784386962890625,0.068572998046875,-0.98236083984375,0.1493988037109375
1773251587029422800,4.7944228515625,0.06878662109375,-0.982757568359375,0.1496734619140625
1773251587039459600,4.80445947265625,0.069793701171875,-0.9861297607421875,0.1513519287109375
1773251587049496600,4.81449658203125,0.07403564453125,-0.9873504638671875,0.14971923828125
1773251587059533600,4.824533447265625,0.07476806640625,-0.9881134033203125,0.151611328125
1773251587069569500,4.834569580078125,0.0598297119140625,-0.9845123291015625,0.1495513916015625
1773251587079606800,4.844606689453125,0.0693817138671875,-0.981781005859375,0.1491546630859375
1773251587089643800,4.854643798828125,0.0648345947265625,-0.9839630126953125,0.150146484375
1773251587099679700,4.8646796875,0.070098876953125,-0.986083984375,0.1468963623046875
1773251587109716700,4.874716796875,0.0832977294921875,-0.9854278564453125,0.1495361328125
1773251587119753500,4.88475341796875,0.079864501953125,-0.9864349365234375,0.1495513916015625
1773251587129790700,4.894790771484375,0.0649566650390625,-0.9866790771484375,0.1497955322265625
1773251587139826700,4.90482666015625,0.0631866455078125,-0.9815521240234375,0.1517486572265625
1773251587149863700,4.91486376953125,0.0762481689453125,-0.98004150390625,0.1553802490234375
1773251587159900700,4.924900634765625,0.09210205078125,-0.9813690185546875,0.1524810791015625
1773251587169936600,4.9349365234375,0.0862274169921875,-0.98590087890625,0.1515960693359375
1773251587179973600,4.9449736328125,0.0621795654296875,-0.989654541015625,0.1477508544921875
1773251587190011000,4.955010986328125,0.056640625,-0.989227294921875,0.14678955078125
1773251587200047600,4.965047607421875,0.0734710693359375,-0.9864654541015625,0.1493377685546875
1773251587210083800,4.975083740234375,0.083526611328125,-0.982177734375,0.149017333984375
1773251587220120600,4.98512060546875,0.079315185546875,-0.977813720703125,0.1527557373046875
1773251587230157600,4.995157470703125,0.0684051513671875,-0.978607177734375,0.1515350341796875
1773251587240194800,5.00519482421875,0.060028076171875,-0.9801025390625,0.150421142578125
1773251587250230800,5.015230712890625,0.0601959228515625,-0.9814453125,0.15008544921875
1773251587260267800,5.025267822265625,0.0699920654296875,-0.9831390380859375,0.1491241455078125
1773251587270304800,5.0353046875,0.0747528076171875,-0.981658935546875,0.1470184326171875
1773251587280340700,5.0453408203125,0.072509765625,-0.983612060546875,0.1461334228515625
1773251587290377700,5.055377685546875,0.071929931640625,-0.984588623046875,0.14678955078125
1773251587300414700,5.065414794921875,0.076080322265625,-0.985870361328125,0.1506195068359375
1773251587310451700,5.07545166015625,0.07684326171875,-0.98529052734375,0.152435302734375
1773251587320487700,5.08548779296875,0.0733184814453125,-0.98577880859375,0.1502838134765625
1773251587330524700,5.095524658203125,0.0695953369140625,-0.988525390625,0.1486358642578125
1773251587340561700,5.105561767578125,0.0709991455078125,-0.9920806884765625,0.145263671875
1773251587350599000,5.115598876953125,0.0728912353515625,-0.9903411865234375,0.144775390625
1773251587360635000,5.125634765625,0.0732574462890625,-0.9856414794921875,0.1457672119140625
1773251587370671900,5.135671875,0.0695037841796875,-0.9824676513671875,0.15057373046875
1773251587380708600,5.14570849609375,0.0832672119140625,-0.982757568359375,0.15234375
1773251587390744600,5.15574462890625,0.0795745849609375,-0.9839935302734375,0.147613525390625
1773251587400781600,5.165781494140625,0.0588531494140625,-0.983978271484375,0.1498870849609375
1773251587410818600,5.175818603515625,0.0624237060546875,-0.9840850830078125,0.1558074951171875
1773251587420855800,5.185855712890625,0.073333740234375,-0.9861907958984375,0.1548614501953125
1773251587430891800,5.195891845703125,0.08245849609375,-0.9849853515625,0.1487884521484375
1773251587440928800,5.2059287109375,0.0839691162109375,-0.984222412109375,0.1464691162109375
1773251587450965800,5.2159658203125,0.0804290771484375,-0.9832000732421875,0.1460113525390625
1773251587461001700,5.226001708984375,0.0792236328125,-0.9789276123046875,0.147430419921875
1773251587471038500,5.23603857421875,0.078369140625,-0.9804534912109375,0.1500396728515625
1773251587481075700,5.24607568359375,0.07781982421875,-0.9827117919921875,0.1507110595703125
1773251587491112200,5.2561123046875,0.071319580078125,-0.98541259765625,0.1491241455078125
1773251587501148200,5.266148193359375,0.068634033203125,-0.9878692626953125,0.14959716796875
1773251587511185200,5.27618505859375,0.0740203857421875,-0.987945556640625,0.152862548828125
1773251587521222100,5.28622216796875,0.0759735107421875,-0.9837493896484375,0.1542816162109375
1773251587531258000,5.296258056640625,0.07769775390625,-0.9804229736328125,0.154815673828125
1773251587541295000,5.306295166015625,0.077728271484375,-0.9813079833984375,0.1527099609375
1773251587551332400,5.316332275390625,0.0791015625,-0.9817657470703125,0.1535491943359375
1773251587561369000,5.326369140625,0.0760345458984375,-0.984832763671875,0.1550140380859375
1773251587571405000,5.336405029296875,0.07403564453125,-0.9872283935546875,0.15362548828125
1773251587581442000,5.346442138671875,0.0751190185546875,-0.991973876953125,0.151824951171875
1773251587591479000,5.35647900390625,0.0755767822265625,-0.99365234375,0.1502838134765625
1773251587601516300,5.366516357421875,0.0752410888671875,-0.9885101318359375,0.1530914306640625
1773251587611552300,5.37655224609375,0.0778350830078125,-0.9844207763671875,0.157073974609375
1773251587621589200,5.38658935546875,0.077880859375,-0.981658935546875,0.1560211181640625
1773251587631626200,5.396626220703125,0.076629638671875,-0.981292724609375,0.1555938720703125
1773251587641662200,5.406662109375,0.07373046875,-0.9816741943359375,0.1511993408203125
1773251587651699000,5.416698974609375,0.0713958740234375,-0.9836578369140625,0.1493988037109375
1773251587661736200,5.426736083984375,0.0725860595703125,-0.98626708984375,0.1458892822265625
1773251587671773200,5.436773193359375,0.07421875,-0.9854736328125,0.1483306884765625
1773251587681809200,5.44680908203125,0.076141357421875,-0.9780120849609375,0.153350830078125
1773251587691846100,5.45684619140625,0.0797576904296875,-0.9756317138671875,0.157867431640625
1773251587701883100,5.466883056640625,0.0799560546875,-0.9776458740234375,0.1560211181640625
1773251587711920400,5.47692041015625,0.073883056640625,-0.9815673828125,0.1541290283203125
1773251587721956400,5.486956298828125,0.073699951171875,-0.9828338623046875,0.1531982421875
1773251587731993000,5.4969931640625,0.0748291015625,-0.9830169677734375,0.1550445556640625
1773251587742030000,5.507030029296875,0.0745391845703125,-0.9811248779296875,0.1558074951171875
1773251587752066000,5.517066162109375,0.07318115234375,-0.9854888916015625,0.1517333984375
1773251587762103000,5.52710302734375,0.076080322265625,-0.9857940673828125,0.1499176025390625
1773251587772140300,5.537140380859375,0.0727691650390625,-0.9844207763671875,0.1493682861328125
1773251587782177300,5.54717724609375,0.0751800537109375,-0.983795166015625,0.15277099609375
1773251587792213200,5.557213134765625,0.0760955810546875,-0.9829864501953125,0.1581268310546875
1773251587802250200,5.567250244140625,0.0768585205078125,-0.9825897216796875,0.1627655029296875
1773251587812287000,5.577286865234375,0.07794189453125,-0.9828338623046875,0.1621856689453125
1773251587822323200,5.5873232421875,0.0806121826171875,-0.985992431640625,0.159210205078125
1773251587832360200,5.597360107421875,0.080780029296875,-0.98590087890625,0.153228759765625
1773251587842397200,5.607397216796875,0.076385498046875,-0.985809326171875,0.1531524658203125
1773251587852434200,5.61743408203125,0.0712127685546875,-0.9874420166015625,0.155731201171875
1773251587862470100,5.62747021484375,0.073516845703125,-0.9857330322265625,0.156707763671875
1773251587872507100,5.637507080078125,0.0777130126953125,-0.980926513671875,0.1594390869140625
1773251587882544000,5.647544189453125,0.080291748046875,-0.9790191650390625,0.1573028564453125
1773251587892580400,5.657580322265625,0.07855224609375,-0.9800262451171875,0.1553192138671875
1773251587902617300,5.667617431640625,0.071807861328125,-0.982666015625,0.157928466796875
1773251587912654000,5.677654052734375,0.070281982421875,-0.981842041015625,0.1588134765625
1773251587922691000,5.687691162109375,0.071319580078125,-0.982177734375,0.1567840576171875
1773251587932727000,5.69772705078125,0.0747833251953125,-0.982757568359375,0.1536407470703125
1773251587942764000,5.707763916015625,0.081207275390625,-0.9838104248046875,0.1546478271484375
1773251587952801300,5.71780126953125,0.0808563232421875,-0.982330322265625,0.1541748046875
1773251587962838300,5.72783837890625,0.0771331787109375,-0.9822845458984375,0.1551971435546875
1773251587972874200,5.737874267578125,0.077301025390625,-0.983306884765625,0.1575469970703125
1773251587982911200,5.7479111328125,0.0779876708984375,-0.9809722900390625,0.153472900390625
1773251587992948000,5.757947998046875,0.077117919921875,-0.980865478515625,0.1497955322265625
1773251588002984000,5.76798388671875,0.0813751220703125,-0.9823760986328125,0.1501007080078125
1773251588013021200,5.778021240234375,0.0857086181640625,-0.9824676513671875,0.1516571044921875
1773251588023058200,5.78805810546875,0.0654144287109375,-0.9775848388671875,0.1550140380859375
1773251588033095200,5.79809521484375,0.0665130615234375,-0.977874755859375,0.15765380859375
1773251588043131100,5.808131103515625,0.0730133056640625,-0.981842041015625,0.155059814453125
1773251588053168000,5.818168212890625,0.0836181640625,-0.984375,0.1544647216796875
1773251588063205000,5.828205078125,0.0896453857421875,-0.98199462890625,0.155120849609375
1773251588073241300,5.838241455078125,0.085174560546875,-0.9880523681640625,0.152923583984375
1773251588083278000,5.848278076171875,0.07171630859375,-0.9896392822265625,0.151641845703125
1773251588093315000,5.858315185546875,0.0676116943359375,-0.9817047119140625,0.1577911376953125
1773251588103352000,5.86835205078125,0.0797882080078125,-0.9794158935546875,0.159423828125
1773251588113388000,5.878387939453125,0.09515380859375,-0.9835357666015625,0.152130126953125
1773251588123425300,5.88842529296875,0.09454345703125,-0.9862213134765625,0.149078369140625
1773251588133462300,5.898462158203125,0.0787506103515625,-0.985626220703125,0.146697998046875
1773251588143499000,5.9084990234375,0.0724639892578125,-0.98382568359375,0.1488189697265625
1773251588153535200,5.91853515625,0.0848236083984375,-0.985809326171875,0.1533203125
1773251588163572000,5.928572021484375,0.092498779296875,-0.9860076904296875,0.1540679931640625
1773251588173609200,5.938609130859375,0.0863037109375,-0.9838714599609375,0.1545257568359375
1773251588183645200,5.948645263671875,0.074493408203125,-0.9809417724609375,0.1536102294921875
1773251588193682200,5.95868212890625,0.0675201416015625,-0.9816741943359375,0.153564453125
1773251588203719200,5.96871923828125,0.0734100341796875,-0.9823760986328125,0.151580810546875
1773251588213756200,5.978756103515625,0.082122802734375,-0.982330322265625,0.151885986328125
1773251588223792000,5.988792236328125,0.08416748046875,-0.9856414794921875,0.1503448486328125
1773251588233829400,5.998829345703125,0.083709716796875,-0.9888763427734375,0.1511077880859375
1773251588243866000,6.0088662109375,0.081573486328125,-0.9894866943359375,0.152923583984375
1773251588253902000,6.018902099609375,0.0811004638671875,-0.989776611328125,0.15509033203125
1773251588263939000,6.02893896484375,0.0826263427734375,-0.9883575439453125,0.1529388427734375
1773251588273976000,6.03897607421875,0.0827178955078125,-0.986175537109375,0.153289794921875
1773251588284013300,6.049013427734375,0.084136962890625,-0.984405517578125,0.1526947021484375
1773251588294049300,6.05904931640625,0.0852813720703125,-0.9846343994140625,0.15460205078125
1773251588304086300,6.069086181640625,0.08416748046875,-0.9880218505859375,0.1542205810546875
1773251588314123300,6.079123291015625,0.0811004638671875,-0.9883270263671875,0.154449462890625
1773251588324159200,6.0891591796875,0.0746612548828125,-0.988311767578125,0.15618896484375
1773251588334196000,6.099196044921875,0.0894012451171875,-0.9861297607421875,0.1549072265625
1773251588344233000,6.10923291015625,0.0980987548828125,-0.9806365966796875,0.152435302734375
1773251588354270200,6.119270263671875,0.079620361328125,-0.9762725830078125,0.1546173095703125
1773251588364306200,6.12930615234375,0.0747528076171875,-0.973052978515625,0.1559600830078125
1773251588374343200,6.13934326171875,0.0828399658203125,-0.97344970703125,0.154876708984375
1773251588384380200,6.149380126953125,0.0893096923828125,-0.9791412353515625,0.155426025390625
1773251588394417200,6.159417236328125,0.09136962890625,-0.9793548583984375,0.15582275390625
1773251588404453000,6.169453125,0.088287353515625,-0.9817657470703125,0.151458740234375
1773251588414490000,6.179489990234375,0.091217041015625,-0.9800262451171875,0.1519927978515625
1773251588424527000,6.189527099609375,0.0949554443359375,-0.9782257080078125,0.155059814453125
1773251588434563000,6.19956298828125,0.091827392578125,-0.978759765625,0.1529998779296875
1773251588444600000,6.20960009765625,0.0893707275390625,-0.9816436767578125,0.1525115966796875
1773251588454637000,6.219636962890625,0.085723876953125,-0.98046875,0.1558837890625
1773251588464674300,6.22967431640625,0.0873260498046875,-0.980072021484375,0.1549835205078125
1773251588474710300,6.239710205078125,0.0912017822265625,-0.9806060791015625,0.1552581787109375
1773251588484747300,6.249747314453125,0.0932464599609375,-0.981353759765625,0.156463623046875
1773251588494784000,6.259783935546875,0.0900421142578125,-0.982635498046875,0.1523284912109375
1773251588504820200,6.2698203125,0.088531494140625,-0.9822998046875,0.1494293212890625
1773251588514857000,6.27985693359375,0.088623046875,-0.9850616455078125,0.151641845703125
1773251588524894200,6.289894287109375,0.088836669921875,-0.9879302978515625,0.1496429443359375
1773251588534931200,6.29993115234375,0.084991455078125,-0.986358642578125,0.149261474609375
1773251588544967200,6.30996728515625,0.0844268798828125,-0.9842376708984375,0.1490936279296875
1773251588555004200,6.320004150390625,0.0872344970703125,-0.9798126220703125,0.1514892578125
1773251588565041200,6.330041259765625,0.0879974365234375,-0.97930908203125,0.154754638671875
1773251588575078100,6.340078125,0.0874786376953125,-0.9796142578125,0.1536102294921875
1773251588585114400,6.3501142578125,0.0860137939453125,-0.982513427734375,0.152130126953125
1773251588595151000,6.360151123046875,0.085205078125,-0.9857025146484375,0.150665283203125
1773251588605188000,6.37018798828125,0.0873870849609375,-0.98504638671875,0.1487579345703125
1773251588615224000,6.38022412109375,0.086334228515625,-0.9804534912109375,0.149810791015625
1773251588625261000,6.390260986328125,0.0860443115234375,-0.97869873046875,0.1512603759765625
1773251588635298300,6.40029833984375,0.0893402099609375,-0.9806365966796875,0.1516876220703125
1773251588645335300,6.410335205078125,0.0879364013671875,-0.9791107177734375,0.1533966064453125
1773251588655371300,6.420371337890625,0.085723876953125,-0.9806976318359375,0.157073974609375
1773251588665408300,6.430408203125,0.08367919921875,-0.9815826416015625,0.156585693359375
1773251588675445000,6.440445068359375,0.0838165283203125,-0.9828338623046875,0.15277099609375
1773251588685481000,6.45048095703125,0.08587646484375,-0.984283447265625,0.149810791015625
1773251588695518200,6.460518310546875,0.090728759765625,-0.982757568359375,0.14837646484375
1773251588705555200,6.47055517578125,0.092742919921875,-0.9803466796875,0.1509246826171875
1773251588715592200,6.48059228515625,0.08807373046875,-0.9814605712890625,0.1500701904296875
1773251588725628200,6.490628173828125,0.08306884765625,-0.985870361328125,0.150665283203125
1773251588735665200,6.5006650390625,0.0835418701171875,-0.9881439208984375,0.15313720703125
1773251588745702100,6.5107021484375,0.0844573974609375,-0.987823486328125,0.1534423828125
1773251588755739100,6.5207392578125,0.0831756591796875,-0.9853668212890625,0.15362548828125
1773251588765775000,6.530775146484375,0.0841522216796875,-0.9824981689453125,0.152008056640625
1773251588775812000,6.54081201171875,0.0823822021484375,-0.9830474853515625,0.1494140625
1773251588785849000,6.55084912109375,0.080108642578125,-0.9803009033203125,0.1515655517578125
1773251588795885000,6.560885009765625,0.080902099609375,-0.98248291015625,0.15380859375
1773251588805922300,6.57092236328125,0.0815277099609375,-0.983642578125,0.152069091796875
1773251588815959300,6.580959228515625,0.082244873046875,-0.984466552734375,0.15264892578125
1773251588825996300,6.590996337890625,0.08160400390625,-0.98455810546875,0.151763916015625
1773251588836032300,6.6010322265625,0.081329345703125,-0.9840087890625,0.1494293212890625
1773251588846069000,6.611069091796875,0.079681396484375,-0.980377197265625,0.149505615234375
1773251588856106000,6.62110595703125,0.079559326171875,-0.979217529296875,0.154510498046875
1773251588866142000,6.631141845703125,0.07781982421875,-0.98199462890625,0.1554412841796875
1773251588876179200,6.64117919921875,0.0764617919921875,-0.9861297607421875,0.1553955078125
1773251588886216200,6.65121630859375,0.07611083984375,-0.985260009765625,0.151947021484375
1773251588896253200,6.661253173828125,0.0738372802734375,-0.985565185546875,0.15167236328125
1773251588906289200,6.6712890625,0.07269287109375,-0.986968994140625,0.1514434814453125
1773251588916326100,6.681326171875,0.075408935546875,-0.9851226806640625,0.1530609130859375
1773251588926363100,6.691363037109375,0.0789642333984375,-0.9826812744140625,0.156829833984375
1773251588936399000,6.701399169921875,0.0806121826171875,-0.98223876953125,0.1538848876953125
1773251588946436000,6.71143603515625,0.0841064453125,-0.9851531982421875,0.1505126953125
1773251588956473000,6.72147314453125,0.0795135498046875,-0.9853515625,0.1498260498046875
1773251588966510000,6.731510009765625,0.078277587890625,-0.98382568359375,0.15228271484375
1773251588976546000,6.741546142578125,0.077423095703125,-0.9828033447265625,0.1542205810546875
1773251588986583300,6.751583251953125,0.0783538818359375,-0.9817047119140625,0.15570068359375
1773251588996620300,6.761620361328125,0.0809783935546875,-0.980926513671875,0.1562042236328125
1773251589006657000,6.771656982421875,0.08740234375,-0.9857635498046875,0.154754638671875
1773251589016693000,6.78169287109375,0.0798492431640625,-0.9885711669921875,0.1512908935546875
1773251589026730000,6.79172998046875,0.0608673095703125,-0.985809326171875,0.1519317626953125
1773251589036767200,6.801767333984375,0.063629150390625,-0.98681640625,0.155548095703125
1773251589046803200,6.81180322265625,0.0894012451171875,-0.9885711669921875,0.151611328125
1773251589056840200,6.821840087890625,0.0862274169921875,-0.984039306640625,0.1478118896484375
1773251589066877200,6.831877197265625,0.078582763671875,-0.9823455810546875,0.1519775390625
1773251589076914200,6.8419140625,0.072509765625,-0.984527587890625,0.1518402099609375
1773251589086950100,6.8519501953125,0.0708160400390625,-0.9813232421875,0.15386962890625
1773251589096987100,6.861987060546875,0.07440185546875,-0.9779205322265625,0.157012939453125
1773251589107024100,6.872024169921875,0.0867919921875,-0.9775543212890625,0.1544342041015625
1773251589117060000,6.88206005859375,0.10052490234375,-0.982421875,0.1472930908203125
1773251589127097000,6.89209716796875,0.0916595458984375,-0.98614501953125,0.1455078125
1773251589137134000,6.902134033203125,0.0706329345703125,-0.987030029296875,0.1427001953125
1773251589147171300,6.91217138671875,0.0647735595703125,-0.9859161376953125,0.146942138671875
1773251589157207300,6.922207275390625,0.0782623291015625,-0.981475830078125,0.152313232421875
1773251589167244300,6.932244384765625,0.087371826171875,-0.9803314208984375,0.1540069580078125
1773251589177281000,6.942281005859375,0.0849609375,-0.9838104248046875,0.1503753662109375
1773251589187317200,6.952317138671875,0.0711212158203125,-0.9857025146484375,0.145111083984375
1773251589197354000,6.96235400390625,0.0643157958984375,-0.9850311279296875,0.1398773193359375
1773251589207391200,6.97239111328125,0.0680694580078125,-0.981414794921875,0.1439056396484375
1773251589217428200,6.98242822265625,0.0743560791015625,-0.981231689453125,0.1474761962890625
1773251589227464200,6.992464111328125,0.0731353759765625,-0.9816436767578125,0.147125244140625
1773251589237501200,7.002501220703125,0.0717010498046875,-0.9835205078125,0.1475372314453125
1773251589247538200,7.0125380859375,0.07232666015625,-0.981292724609375,0.145751953125
1773251589257575000,7.022574951171875,0.0754547119140625,-0.9845733642578125,0.1464385986328125
1773251589267611400,7.032611328125,0.0784912109375,-0.98516845703125,0.1457672119140625
1773251589277648100,7.042648193359375,0.0780792236328125,-0.987518310546875,0.14599609375
1773251589287685000,7.05268505859375,0.075347900390625,-0.98895263671875,0.14794921875
1773251589297721000,7.06272119140625,0.078155517578125,-0.98687744140625,0.1504364013671875
1773251589307758000,7.072758056640625,0.079559326171875,-0.98565673828125,0.153656005859375
1773251589317795000,7.082795166015625,0.0765380859375,-0.9864501953125,0.15093994140625
1773251589327832300,7.092832275390625,0.065887451171875,-0.9871826171875,0.150115966796875
1773251589337868300,7.102868408203125,0.0720367431640625,-0.9878387451171875,0.1514739990234375
1773251589347905300,7.1129052734375,0.0811004638671875,-0.9882965087890625,0.1475982666015625
1773251589357942000,7.12294189453125,0.0626068115234375,-0.98565673828125,0.145660400390625
1773251589367978000,7.13297802734375,0.0597686767578125,-0.9832763671875,0.1497039794921875
1773251589378015000,7.143014892578125,0.0732574462890625,-0.980499267578125,0.15240478515625
1773251589388052200,7.15305224609375,0.0867767333984375,-0.98297119140625,0.1512908935546875
1773251589398089200,7.163089111328125,0.084228515625,-0.9852447509765625,0.152313232421875
1773251589408125200,7.173125244140625,0.0788726806640625,-0.985748291015625,0.1522216796875
1773251589418162200,7.183162109375,0.0762939453125,-0.9867401123046875,0.1537322998046875
1773251589428199200,7.19319921875,0.0749969482421875,-0.98687744140625,0.152252197265625
1773251589438236200,7.203236083984375,0.07281494140625,-0.9853973388671875,0.150604248046875
1773251589448272100,7.213272216796875,0.0714569091796875,-0.9826812744140625,0.1490325927734375
1773251589458309000,7.22330908203125,0.073150634765625,-0.9814300537109375,0.147003173828125
1773251589468346000,7.23334619140625,0.0774078369140625,-0.9827728271484375,0.146759033203125
1773251589478382000,7.243382080078125,0.077667236328125,-0.9821014404296875,0.147674560546875
1773251589488419000,7.253419189453125,0.0756378173828125,-0.983184814453125,0.147216796875
1773251589498456800,7.263456787109375,0.073699951171875,-0.9845123291015625,0.1478118896484375
1773251589508493800,7.273493896484375,0.072113037109375,-0.9832763671875,0.1477813720703125
1773251589518529800,7.28352978515625,0.073516845703125,-0.9844818115234375,0.1480255126953125
1773251589528566800,7.29356689453125,0.0760955810546875,-0.9872589111328125,0.143646240234375
1773251589538604000,7.30360400390625,0.07611083984375,-0.98602294921875,0.1446990966796875
1773251589548640000,7.313639892578125,0.0752410888671875,-0.985565185546875,0.1508636474609375
1773251589558677000,7.323677001953125,0.0763702392578125,-0.9841766357421875,0.1514434814453125
1773251589568714000,7.3337138671875,0.075958251953125,-0.984039306640625,0.1516265869140625
1773251589578751000,7.3437509765625,0.07659912109375,-0.9854583740234375,0.153045654296875
1773251589588787000,7.353786865234375,0.0743865966796875,-0.9869384765625,0.1482391357421875
1773251589598823700,7.36382373046875,0.0742340087890625,-0.9881134033203125,0.1443939208984375
1773251589608861000,7.37386083984375,0.07373046875,-0.9858551025390625,0.1466827392578125
1773251589618897000,7.38389697265625,0.0749969482421875,-0.985504150390625,0.14453125
1773251589628934000,7.393933837890625,0.07623291015625,-0.9849395751953125,0.14544677734375
1773251589638971000,7.403970947265625,0.07574462890625,-0.9819793701171875,0.14886474609375
1773251589649007900,7.4140078125,0.077117919921875,-0.9818267822265625,0.1509552001953125
1773251589659043800,7.4240439453125,0.076385498046875,-0.98272705078125,0.1535186767578125
1773251589669081000,7.4340810546875,0.07415771484375,-0.98748779296875,0.1494293212890625
1773251589679117800,7.444117919921875,0.074676513671875,-0.990081787109375,0.1459197998046875
1773251589689153800,7.45415380859375,0.076751708984375,-0.985137939453125,0.145904541015625
1773251589699190800,7.464190673828125,0.0775299072265625,-0.980926513671875,0.1470184326171875
1773251589709227800,7.474227783203125,0.0794525146484375,-0.9817657470703125,0.1473541259765625
1773251589719265000,7.48426513671875,0.074951171875,-0.9813995361328125,0.14630126953125
1773251589729301000,7.494301025390625,0.071319580078125,-0.9823455810546875,0.146270751953125
1773251589739338000,7.504337890625,0.072509765625,-0.9847564697265625,0.146148681640625
1773251589749375000,7.514375,0.0759735107421875,-0.987884521484375,0.147247314453125
1773251589759411000,7.524410888671875,0.07708740234375,-0.9892578125,0.146484375
1773251589769447700,7.53444775390625,0.0743255615234375,-0.98590087890625,0.14837646484375
1773251589779485000,7.54448486328125,0.0760955810546875,-0.984466552734375,0.1483001708984375
1773251589789522000,7.55452197265625,0.0777435302734375,-0.98651123046875,0.146697998046875
1773251589799558000,7.564557861328125,0.074005126953125,-0.9848785400390625,0.145050048828125
1773251589809595000,7.574594970703125,0.073944091796875,-0.9822998046875,0.1468353271484375
1773251589819631900,7.5846318359375,0.0772857666015625,-0.980682373046875,0.1485137939453125
1773251589829667800,7.594667724609375,0.075042724609375,-0.981048583984375,0.150970458984375
1773251589839705000,7.604705078125,0.074249267578125,-0.983428955078125,0.1493682861328125
1773251589849741800,7.614741943359375,0.0757598876953125,-0.9874420166015625,0.149017333984375
1773251589859778800,7.62477880859375,0.073760986328125,-0.9868011474609375,0.1495361328125
1773251589869814800,7.634814697265625,0.07281494140625,-0.985595703125,0.1505889892578125
1773251589879851800,7.644851806640625,0.074920654296875,-0.985015869140625,0.1493072509765625
1773251589889889000,7.654888916015625,0.07763671875,-0.982574462890625,0.14971923828125
1773251589899926000,7.664926025390625,0.08148193359375,-0.979156494140625,0.149627685546875
1773251589909962000,7.6749619140625,0.081939697265625,-0.9796905517578125,0.1490020751953125
1773251589919999000,7.6849990234375,0.0794830322265625,-0.981781005859375,0.149322509765625
1773251589930035700,7.69503564453125,0.074493408203125,-0.9870147705078125,0.150054931640625
1773251589940072000,7.705072021484375,0.0747222900390625,-0.9894866943359375,0.14996337890625
1773251589950109000,7.71510888671875,0.075775146484375,-0.98919677734375,0.1475677490234375
1773251589960146000,7.72514599609375,0.0790252685546875,-0.986602783203125,0.1456146240234375
1773251589970183000,7.735182861328125,0.07843017578125,-0.980926513671875,0.1476287841796875
1773251589980219000,7.745218994140625,0.0755767822265625,-0.9802093505859375,0.146820068359375
1773251589990255900,7.755255859375,0.076751708984375,-0.982452392578125,0.1463775634765625
1773251590000293000,7.765293212890625,0.0779876708984375,-0.9848175048828125,0.151458740234375
1773251590010329000,7.7753291015625,0.078369140625,-0.98638916015625,0.15045166015625
1773251590020366000,7.785365966796875,0.07672119140625,-0.98822021484375,0.1482696533203125
1773251590030402800,7.79540283203125,0.0750579833984375,-0.9862213134765625,0.1464080810546875
1773251590040439800,7.805439697265625,0.0779571533203125,-0.9867706298828125,0.144012451171875
1773251590050475800,7.815475830078125,0.07794189453125,-0.9850616455078125,0.1437225341796875
1773251590060513000,7.825512939453125,0.077056884765625,-0.9821014404296875,0.14306640625
1773251590070550000,7.835550048828125,0.0802459716796875,-0.9821624755859375,0.1435699462890625
1773251590080586000,7.8455859375,0.08331298828125,-0.983001708984375,0.1459197998046875
1773251590090623000,7.855623046875,0.0843505859375,-0.9868927001953125,0.1447296142578125
1773251590100660000,7.865659912109375,0.0739593505859375,-0.985137939453125,0.1472015380859375
1773251590110696700,7.87569677734375,0.075286865234375,-0.981414794921875,0.145843505859375
1773251590120732700,7.885732666015625,0.06890869140625,-0.97918701171875,0.1462554931640625
1773251590130770000,7.89577001953125,0.0735626220703125,-0.981353759765625,0.1439971923828125
1773251590140807000,7.905806884765625,0.079437255859375,-0.98309326171875,0.1425628662109375
1773251590150843000,7.9158427734375,0.0823516845703125,-0.985809326171875,0.14361572265625
1773251590160879900,7.9258798828125,0.0750579833984375,-0.9868927001953125,0.1448974609375
1773251590170916900,7.935916748046875,0.0760498046875,-0.982940673828125,0.149017333984375
1773251590180953900,7.945953857421875,0.0832366943359375,-0.98272705078125,0.1514129638671875
1773251590190990000,7.955989990234375,0.0966033935546875,-0.98529052734375,0.1471099853515625
1773251590201026800,7.96602685546875,0.0972900390625,-0.98553466796875,0.146759033203125
1773251590211063800,7.976063720703125,0.073394775390625,-0.9881134033203125,0.143768310546875
1773251590221100800,7.986100830078125,0.0592193603515625,-0.9859771728515625,0.1420440673828125
1773251590231136800,7.99613671875,0.068511962890625,-0.986053466796875,0.146240234375
1773251590241174000,8.006174072265624,0.084075927734375,-0.98529052734375,0.1504364013671875
1773251590251211000,8.0162109375,0.0885467529296875,-0.984771728515625,0.1472930908203125
1773251590261247000,8.0262470703125,0.0801544189453125,-0.9835968017578125,0.142608642578125
1773251590271284000,8.036283935546875,0.0667877197265625,-0.9810028076171875,0.140899658203125
1773251590281320700,8.04632080078125,0.06494140625,-0.9807891845703125,0.1475067138671875
1773251590291358000,8.05635791015625,0.0732574462890625,-0.98187255859375,0.1489410400390625
1773251590301394000,8.066393798828125,0.0770111083984375,-0.9859466552734375,0.1475067138671875
1773251590311431000,8.076430908203125,0.0771942138671875,-0.98870849609375,0.146575927734375
1773251590321468000,8.086468017578126,0.076690673828125,-0.9915008544921875,0.147064208984375
1773251590331503900,8.09650390625,0.0778350830078125,-0.9893341064453125,0.15081787109375
1773251590341540900,8.106540771484376,0.079925537109375,-0.988067626953125,0.15283203125
1773251590351578000,8.116578125,0.077423095703125,-0.989654541015625,0.1496429443359375
1773251590361614800,8.12661474609375,0.07379150390625,-0.9865570068359375,0.1462860107421875
1773251590371650800,8.13665087890625,0.0755157470703125,-0.98455810546875,0.1452789306640625
1773251590381687800,8.146687744140625,0.0804901123046875,-0.9825439453125,0.1452178955078125
1773251590391724800,8.156724853515625,0.0802154541015625,-0.982879638671875,0.149444580078125
1773251590401760800,8.1667607421875,0.07421875,-0.98699951171875,0.1471405029296875
1773251590411798000,8.176798095703125,0.0663909912109375,-0.989227294921875,0.1460113525390625
1773251590421835000,8.1868349609375,0.079864501953125,-0.9900054931640625,0.14691162109375
1773251590431872000,8.1968720703125,0.08721923828125,-0.985137939453125,0.14849853515625
1773251590441908000,8.206907958984376,0.0652618408203125,-0.9785003662109375,0.150604248046875
1773251590451944700,8.21694482421875,0.06365966796875,-0.9792327880859375,0.149444580078125
1773251590461982000,8.22698193359375,0.0791168212890625,-0.9840545654296875,0.1483001708984375
1773251590472018000,8.237017822265624,0.0855712890625,-0.98455810546875,0.1477813720703125
1773251590482055000,8.247054931640625,0.0832366943359375,-0.9872894287109375,0.1471710205078125
1773251590492091400,8.25709130859375,0.0792388916015625,-0.98956298828125,0.1504364013671875
1773251590502128400,8.26712841796875,0.076568603515625,-0.98956298828125,0.15435791015625
1773251590512164400,8.277164306640625,0.078094482421875,-0.989501953125,0.153839111328125
1773251590522201300,8.287201416015625,0.079132080078125,-0.9908447265625,0.151580810546875
1773251590532238600,8.297238525390625,0.0771331787109375,-0.9890594482421875,0.150054931640625
1773251590542274600,8.307274658203125,0.0783233642578125,-0.9837188720703125,0.149749755859375
1773251590552311300,8.317311279296876,0.0811920166015625,-0.97802734375,0.1484527587890625
1773251590562348300,8.327348388671876,0.0863037109375,-0.97882080078125,0.150299072265625
1773251590572385300,8.33738525390625,0.0878753662109375,-0.98358154296875,0.14837646484375
1773251590582421200,8.347421142578124,0.0843353271484375,-0.9857940673828125,0.15032958984375
1773251590592458500,8.35745849609375,0.0786590576171875,-0.9821014404296875,0.153533935546875
1773251590602495500,8.36749560546875,0.0785980224609375,-0.979888916015625,0.1562957763671875
1773251590612531500,8.377531494140625,0.0831451416015625,-0.9791107177734375,0.15380859375
1773251590622568400,8.387568359375,0.0848388671875,-0.978057861328125,0.15008544921875
1773251590632605400,8.39760546875,0.0813446044921875,-0.979583740234375,0.1496429443359375
1773251590642642400,8.407642333984375,0.0801239013671875,-0.9814605712890625,0.146881103515625
1773251590652678400,8.417678466796875,0.0821380615234375,-0.9833221435546875,0.1447601318359375
1773251590662715400,8.42771533203125,0.0847625732421875,-0.9856414794921875,0.1440582275390625
1773251590672752400,8.43775244140625,0.086212158203125,-0.98583984375,0.14544677734375
1773251590682788400,8.447788330078126,0.087249755859375,-0.9830780029296875,0.143402099609375
1773251590692825300,8.457825439453124,0.0852203369140625,-0.9802093505859375,0.142242431640625
1773251590702862600,8.467862548828125,0.08624267578125,-0.9817352294921875,0.140838623046875
1773251590712899300,8.4778994140625,0.08740234375,-0.9832763671875,0.141265869140625
1773251590722935600,8.487935546875,0.0866546630859375,-0.98297119140625,0.1446533203125
1773251590732972300,8.49797216796875,0.08367919921875,-0.986572265625,0.140228271484375
1773251590743009300,8.50800927734375,0.0810546875,-0.9884796142578125,0.13800048828125
1773251590753045200,8.518045166015625,0.0835113525390625,-0.98626708984375,0.141082763671875
1773251590763082500,8.52808251953125,0.0892181396484375,-0.9840545654296875,0.141357421875
1773251590773119500,8.538119384765626,0.091766357421875,-0.983551025390625,0.1396484375
1773251590783156500,8.548156494140626,0.0910186767578125,-0.98321533203125,0.1414337158203125
1773251590793192400,8.5581923828125,0.0912322998046875,-0.984588623046875,0.1439208984375
1773251590803229400,8.5682294921875,0.0890655517578125,-0.9886016845703125,0.146881103515625
1773251590813266400,8.578266357421874,0.0883941650390625,-0.98968505859375,0.14630126953125
1773251590823302400,8.588302490234375,0.0871124267578125,-0.9896240234375,0.144134521484375
1773251590833339400,8.59833935546875,0.0872344970703125,-0.9865875244140625,0.1425018310546875
1773251590843376400,8.60837646484375,0.087493896484375,-0.98419189453125,0.1439056396484375
1773251590853413400,8.618413330078125,0.0881195068359375,-0.9844970703125,0.149169921875
1773251590863449300,8.628449462890625,0.08660888671875,-0.982696533203125,0.150543212890625
1773251590873486600,8.638486572265625,0.08514404296875,-0.9830169677734375,0.1518096923828125
1773251590883523600,8.648523681640626,0.0825653076171875,-0.9848175048828125,0.14959716796875
1773251590893559600,8.6585595703125,0.0861053466796875,-0.9830474853515625,0.150604248046875
1773251590903596300,8.66859619140625,0.088592529296875,-0.9820098876953125,0.149810791015625
1773251590913633300,8.67863330078125,0.0918731689453125,-0.9833831787109375,0.14593505859375
1773251590923670300,8.688670166015624,0.09307861328125,-0.979736328125,0.1460723876953125
1773251590933706200,8.698706298828125,0.0925140380859375,-0.981719970703125,0.14739990234375
1773251590943743500,8.708743408203125,0.0910797119140625,-0.9812164306640625,0.145416259765625
1773251590953780500,8.718780517578125,0.08990478515625,-0.9801025390625,0.146240234375
1773251590963816400,8.72881640625,0.0880279541015625,-0.9821929931640625,0.1484222412109375
1773251590973853400,8.738853515625,0.086822509765625,-0.9853668212890625,0.1497344970703125
1773251590983890200,8.74889013671875,0.0853729248046875,-0.9852447509765625,0.14715576171875
1773251590993927400,8.758927490234376,0.0887603759765625,-0.98236083984375,0.14404296875
1773251591003963400,8.76896337890625,0.0936737060546875,-0.98333740234375,0.144866943359375
1773251591014000400,8.77900048828125,0.096832275390625,-0.9822845458984375,0.145660400390625
1773251591024037400,8.789037353515624,0.096832275390625,-0.9810943603515625,0.145843505859375
1773251591034073300,8.7990732421875,0.0969085693359375,-0.9809417724609375,0.1466522216796875
1773251591044110300,8.8091103515625,0.0958251953125,-0.982818603515625,0.146392822265625
1773251591054147600,8.819147705078125,0.094573974609375,-0.9866180419921875,0.1484527587890625
1773251591064184300,8.829184326171875,0.0908966064453125,-0.9845428466796875,0.1498870849609375
1773251591074220500,8.839220458984375,0.0885467529296875,-0.982391357421875,0.1514434814453125
1773251591084257300,8.84925732421875,0.0860137939453125,-0.9838714599609375,0.1484375
1773251591094294300,8.859294189453125,0.088043212890625,-0.982330322265625,0.14471435546875
1773251591104330200,8.869330322265625,0.090667724609375,-0.97821044921875,0.1454010009765625
1773251591114367500,8.879367431640626,0.0921173095703125,-0.977783203125,0.1492156982421875
1773251591124404500,8.889404541015624,0.094024658203125,-0.9809417724609375,0.147552490234375
1773251591134441500,8.89944140625,0.0930328369140625,-0.98626708984375,0.1495208740234375
1773251591144477400,8.9094775390625,0.0887298583984375,-0.990509033203125,0.1495513916015625
1773251591154514400,8.919514404296875,0.0866241455078125,-0.991424560546875,0.1485748291015625
1773251591164551400,8.929551513671875,0.093780517578125,-0.9886627197265625,0.15045166015625
1773251591174587400,8.93958740234375,0.10198974609375,-0.9852447509765625,0.1517333984375
1773251591184624400,8.949624267578125,0.1041259765625,-0.98199462890625,0.149200439453125
1773251591194661400,8.959661376953125,0.11212158203125,-0.9795074462890625,0.145843505859375
1773251591204698400,8.969698486328125,0.0909423828125,-0.9759674072265625,0.144622802734375
1773251591214734300,8.979734375,0.0595855712890625,-0.973968505859375,0.147979736328125
1773251591224771600,8.989771484375,0.0767364501953125,-0.97613525390625,0.1495208740234375
1773251591234808300,8.999808349609374,0.110260009765625,-0.979461669921875,0.1448211669921875
1773251591244844500,9.009844482421874,0.10406494140625,-0.9773406982421875,0.1437225341796875
1773251591254881300,9.01988134765625,0.092681884765625,-0.9745330810546875,0.1476898193359375
1773251591264918300,9.029918212890625,0.0854644775390625,-0.978424072265625,0.1492767333984375
1773251591274955500,9.03995556640625,0.08709716796875,-0.9786834716796875,0.1484375
1773251591284991500,9.049991455078125,0.0963592529296875,-0.977447509765625,0.147369384765625
1773251591295028500,9.060028564453125,0.1076507568359375,-0.980926513671875,0.1439208984375
1773251591305065500,9.0700654296875,0.1160125732421875,-0.986572265625,0.143524169921875
1773251591315101400,9.080101318359375,0.102020263671875,-0.9866180419921875,0.144378662109375
1773251591325138400,9.090138427734376,0.0765838623046875,-0.984466552734375,0.1481170654296875
1773251591335175400,9.100175537109376,0.0798187255859375,-0.9837188720703125,0.1514129638671875
1773251591345212400,9.11021240234375,0.09747314453125,-0.98577880859375,0.152679443359375
1773251591355248400,9.120248291015624,0.1072540283203125,-0.982666015625,0.1486968994140625
1773251591365285400,9.130285400390624,0.102386474609375,-0.981201171875,0.14373779296875
1773251591375322400,9.140322265625,0.0902099609375,-0.9829559326171875,0.1441192626953125
1773251591385358300,9.1503583984375,0.0817718505859375,-0.9835205078125,0.1470794677734375
1773251591395395600,9.1603955078125,0.0835113525390625,-0.982940673828125,0.15179443359375
1773251591405432600,9.1704326171875,0.0896759033203125,-0.983306884765625,0.1505584716796875
1773251591415469300,9.18046923828125,0.09075927734375,-0.9874420166015625,0.1478729248046875
1773251591425505300,9.19050537109375,0.0918731689453125,-0.99053955078125,0.14361572265625
1773251591435542300,9.200542236328126,0.0921478271484375,-0.9903717041015625,0.14581298828125
1773251591445579300,9.210579345703126,0.092132568359375,-0.98846435546875,0.143707275390625
1773251591455615500,9.220615478515626,0.0934600830078125,-0.986419677734375,0.139251708984375
1773251591465652500,9.230652587890624,0.0885009765625,-0.9817657470703125,0.1436614990234375
1773251591475689500,9.240689453125,0.087615966796875,-0.9798583984375,0.14691162109375
1773251591485726500,9.2507265625,0.09014892578125,-0.980804443359375,0.1458892822265625
1773251591495763000,9.260762939453125,0.09173583984375,-0.982757568359375,0.143646240234375
1773251591505800000,9.270800048828125,0.0854339599609375,-0.9847869873046875,0.142822265625
1773251591515837000,9.2808369140625,0.078582763671875,-0.98663330078125,0.1403350830078125
1773251591525873000,9.290872802734375,0.097869873046875,-0.9868621826171875,0.14068603515625
1773251591535910000,9.300909912109375,0.093048095703125,-0.9850006103515625,0.1437530517578125
1773251591545947000,9.31094677734375,0.074310302734375,-0.979339599609375,0.1447601318359375
1773251591555984100,9.320984130859374,0.0786285400390625,-0.9785614013671875,0.1456451416015625
1773251591566020000,9.33102001953125,0.0883331298828125,-0.979766845703125,0.146575927734375
1773251591576056800,9.341056884765624,0.0915069580078125,-0.9828643798828125,0.1442108154296875
1773251591586093800,9.35109375,0.0915985107421875,-0.9833831787109375,0.1433258056640625
1773251591596129800,9.3611298828125,0.0903167724609375,-0.9861907958984375,0.1470184326171875
1773251591606166800,9.371166748046875,0.0930938720703125,-0.985443115234375,0.14520263671875
1773251591616203800,9.381203857421875,0.0979461669921875,-0.9856719970703125,0.1448974609375
1773251591626241000,9.391240966796875,0.093231201171875,-0.9846343994140625,0.14892578125
1773251591636277000,9.401277099609375,0.086700439453125,-0.986236572265625,0.146270751953125
1773251591646314000,9.41131396484375,0.085113525390625,-0.9844207763671875,0.1450653076171875
1773251591656351000,9.42135107421875,0.089447021484375,-0.981414794921875,0.146148681640625
1773251591666387000,9.431386962890626,0.0922393798828125,-0.9819488525390625,0.143646240234375
1773251591676423700,9.441423583984376,0.0936126708984375,-0.98309326171875,0.1394195556640625
1773251591686461000,9.4514609375,0.0920257568359375,-0.98419189453125,0.138763427734375
1773251591696498000,9.461497802734375,0.0907135009765625,-0.9862518310546875,0.1417388916015625
1773251591706534000,9.471533935546875,0.0894317626953125,-0.9845123291015625,0.14532470703125
1773251591716571000,9.48157080078125,0.0885467529296875,-0.9811248779296875,0.1492156982421875
1773251591726608000,9.49160791015625,0.090972900390625,-0.979217529296875,0.1466827392578125
1773251591736643800,9.501643798828125,0.09246826171875,-0.98187255859375,0.1435699462890625
1773251591746681000,9.51168115234375,0.091033935546875,-0.9859771728515625,0.139556884765625
1773251591756717800,9.5217177734375,0.089019775390625,-0.9873046875,0.1415252685546875
1773251591766754800,9.5317548828125,0.088226318359375,-0.9861907958984375,0.1398468017578125
1773251591776790800,9.541790771484376,0.0892333984375,-0.9846954345703125,0.1408843994140625
1773251591786827800,9.551827880859374,0.0898895263671875,-0.9835052490234375,0.1396636962890625
1773251591796865000,9.561864990234374,0.0875701904296875,-0.98553466796875,0.142547607421875
1773251591806901000,9.57190087890625,0.087158203125,-0.984588623046875,0.1408233642578125
1773251591816938000,9.58193798828125,0.0873565673828125,-0.9857330322265625,0.1418304443359375
1773251591826975000,9.59197509765625,0.08892822265625,-0.982757568359375,0.1412811279296875
1773251591837011700,9.60201171875,0.091217041015625,-0.9842529296875,0.141571044921875
1773251591847047700,9.612047607421875,0.090057373046875,-0.98492431640625,0.142486572265625
1773251591857085000,9.6220849609375,0.0865478515625,-0.984893798828125,0.1424102783203125
1773251591867122000,9.632121826171876,0.0851898193359375,-0.9843292236328125,0.1453399658203125
1773251591877158000,9.642157958984376,0.0877685546875,-0.983154296875,0.147735595703125
1773251591887195000,9.65219482421875,0.08935546875,-0.98443603515625,0.1446990966796875
1773251591897232000,9.66223193359375,0.0902862548828125,-0.9833221435546875,0.14422607421875
1773251591907269000,9.67226904296875,0.090667724609375,-0.982757568359375,0.1463165283203125
1773251591917305000,9.68230517578125,0.0909881591796875,-0.9819793701171875,0.14697265625
1773251591927341800,9.692341796875,0.0885162353515625,-0.9815673828125,0.146270751953125
1773251591937378800,9.70237890625,0.0869140625,-0.9813385009765625,0.1487884521484375
1773251591947414800,9.712414794921875,0.0883941650390625,-0.9822540283203125,0.1502838134765625
1773251591957451800,9.72245166015625,0.0903778076171875,-0.983428955078125,0.1497039794921875
1773251591967489000,9.732489013671875,0.0896759033203125,-0.9853973388671875,0.148101806640625
1773251591977526000,9.742526123046876,0.0889434814453125,-0.98541259765625,0.1483917236328125
1773251591987562000,9.75256201171875,0.0890350341796875,-0.982574462890625,0.146392822265625
1773251591997599000,9.762598876953126,0.091033935546875,-0.9839935302734375,0.1458587646484375
1773251592007635700,9.7726357421875,0.0867462158203125,-0.9866180419921875,0.1428070068359375
1773251592017672000,9.782671875,0.0848541259765625,-0.9871826171875,0.143524169921875
1773251592027709000,9.792708984375,0.0858612060546875,-0.98553466796875,0.145660400390625
1773251592037746000,9.802745849609375,0.08612060546875,-0.9825592041015625,0.1461181640625
1773251592047783000,9.812782958984375,0.089691162109375,-0.985443115234375,0.1435089111328125
1773251592057819000,9.82281884765625,0.0899505615234375,-0.9830474853515625,0.142852783203125
1773251592067856000,9.83285595703125,0.085601806640625,-0.9818115234375,0.1440582275390625
1773251592077893000,9.84289306640625,0.088104248046875,-0.9839324951171875,0.146392822265625
1773251592087929000,9.85292919921875,0.0906524658203125,-0.98297119140625,0.1466217041015625
1773251592097966000,9.862966064453126,0.0888671875,-0.983062744140625,0.144683837890625
1773251592108002800,9.8730029296875,0.0879364013671875,-0.9853668212890625,0.142852783203125
1773251592118039800,9.883039794921874,0.0873260498046875,-0.985382080078125,0.1434478759765625
1773251592128075800,9.89307568359375,0.0845794677734375,-0.98638916015625,0.1430511474609375
1773251592138113000,9.903113037109375,0.0881500244140625,-0.9854888916015625,0.144500732421875
1773251592148150000,9.91314990234375,0.0917510986328125,-0.98394775390625,0.14495849609375
1773251592158186000,9.92318603515625,0.0918121337890625,-0.984893798828125,0.1447296142578125
1773251592168223000,9.933222900390625,0.0919342041015625,-0.984466552734375,0.1435089111328125
1773251592178260000,9.943260009765625,0.0890655517578125,-0.9827728271484375,0.1424407958984375
1773251592188296700,9.953296630859375,0.0846710205078125,-0.984161376953125,0.14263916015625
1773251592198332700,9.963332763671875,0.0861663818359375,-0.983612060546875,0.14276123046875
1773251592208370000,9.973369873046876,0.0841522216796875,-0.9827117919921875,0.14447021484375
1773251592218407000,9.983406982421876,0.0825042724609375,-0.9825897216796875,0.147003173828125
1773251592228443000,9.99344287109375,0.0850067138671875,-0.9852447509765625,0.1455535888671875
1773251592238480000,10.00347998046875,0.0867919921875,-0.987060546875,0.14398193359375
1773251592248516900,10.013516845703125,0.0885009765625,-0.9852447509765625,0.145233154296875
1773251592258553900,10.023553955078125,0.0899810791015625,-0.984649658203125,0.1428375244140625
1773251592268590000,10.033590087890625,0.089141845703125,-0.98516845703125,0.14080810546875
1773251592278626800,10.043626708984375,0.0868377685546875,-0.983795166015625,0.1430206298828125
1773251592288663800,10.053663818359375,0.087890625,-0.9829559326171875,0.14617919921875
1773251592298699800,10.06369970703125,0.0908966064453125,-0.982269287109375,0.146881103515625
1773251592308736800,10.07373681640625,0.0897979736328125,-0.9845733642578125,0.147216796875
1773251592318774000,10.08377392578125,0.092803955078125,-0.986358642578125,0.1442413330078125
1773251592328811000,10.09381103515625,0.0870361328125,-0.9863128662109375,0.1428985595703125
1773251592338847000,10.103846923828126,0.081329345703125,-0.9844207763671875,0.14044189453125
1773251592348884000,10.113884033203124,0.0844573974609375,-0.98480224609375,0.1444244384765625
1773251592358920700,10.123920654296874,0.0849151611328125,-0.9858551025390625,0.1444091796875
1773251592368957000,10.13395703125,0.083740234375,-0.98541259765625,0.1389007568359375
1773251592378994000,10.143993896484375,0.090576171875,-0.98486328125,0.1413726806640625
1773251592389031000,10.154031005859375,0.08966064453125,-0.9845733642578125,0.143829345703125
1773251592399068000,10.16406787109375,0.0847625732421875,-0.9800872802734375,0.1462860107421875
1773251592409104000,10.174103759765625,0.08660888671875,-0.9764404296875,0.1458282470703125
1773251592419140900,10.184140869140625,0.09954833984375,-0.977630615234375,0.1416473388671875
1773251592429178000,10.19417822265625,0.1095428466796875,-0.9812774658203125,0.1380767822265625
1773251592439214000,10.204214111328126,0.0977630615234375,-0.98846435546875,0.1365509033203125
1773251592449250800,10.214250732421876,0.075714111328125,-0.992340087890625,0.13958740234375
1773251592459287800,10.224287841796874,0.0720672607421875,-0.9908599853515625,0.1449737548828125
1773251592469324800,10.23432470703125,0.0863189697265625,-0.9866790771484375,0.1471099853515625
1773251592479360800,10.24436083984375,0.09747314453125,-0.98114013671875,0.1432647705078125
1773251592489398000,10.25439794921875,0.1002655029296875,-0.976287841796875,0.1401824951171875
1773251592499434500,10.2644345703125,0.0927886962890625,-0.978973388671875,0.1372833251953125
1773251592509470500,10.274470458984375,0.0836181640625,-0.984161376953125,0.1352081298828125
1773251592519507700,10.2845078125,0.0842132568359375,-0.986846923828125,0.14239501953125
1773251592529544700,10.294544677734375,0.0958099365234375,-0.9901123046875,0.149932861328125
1773251592539581400,10.30458154296875,0.10076904296875,-0.9923858642578125,0.147369384765625
1773251592549617400,10.314617431640626,0.094268798828125,-0.9886474609375,0.144195556640625
1773251592559654400,10.324654296875,0.0824127197265625,-0.984832763671875,0.142822265625
1773251592569691400,10.33469140625,0.0794677734375,-0.9861297607421875,0.1402130126953125
1773251592579727400,10.344727294921874,0.0820770263671875,-0.9889678955078125,0.1381683349609375
1773251592589764600,10.3547646484375,0.083953857421875,-0.9907073974609375,0.14056396484375
1773251592599801600,10.364801513671875,0.0849609375,-0.9907684326171875,0.1414337158203125
1773251592609838600,10.374838623046875,0.0855712890625,-0.985626220703125,0.1402587890625
1773251592619874600,10.38487451171875,0.085784912109375,-0.9831695556640625,0.1396636962890625
1773251592629911300,10.394911376953125,0.084259033203125,-0.9829864501953125,0.1366119384765625
1773251592639948500,10.404948486328125,0.0791168212890625,-0.9835662841796875,0.136505126953125
1773251592649984500,10.414984619140625,0.0697479248046875,-0.9821929931640625,0.140350341796875
1773251592660021500,10.425021484375,0.0823516845703125,-0.98260498046875,0.139556884765625
1773251592670058500,10.43505859375,0.0940399169921875,-0.9827728271484375,0.13861083984375
1773251592680095500,10.445095458984374,0.0727081298828125,-0.9804840087890625,0.136871337890625
1773251592690131500,10.45513134765625,0.069183349609375,-0.9759368896484375,0.137847900390625
1773251592700168700,10.465168701171875,0.0858917236328125,-0.9761505126953125,0.139678955078125
1773251592710205400,10.475205322265625,0.0955047607421875,-0.978302001953125,0.138580322265625
1773251592720241700,10.48524169921875,0.0932159423828125,-0.98419189453125,0.136627197265625
1773251592730278400,10.4952783203125,0.08746337890625,-0.986053466796875,0.13922119140625
1773251592740315400,10.5053154296875,0.0841064453125,-0.98614501953125,0.143646240234375
1773251592750352600,10.5153525390625,0.088470458984375,-0.988616943359375,0.1429290771484375
1773251592760388600,10.525388671875,0.0892333984375,-0.9887847900390625,0.1425323486328125
1773251592770425600,10.535425537109376,0.0838470458984375,-0.9876556396484375,0.138824462890625
1773251592780462600,10.545462646484374,0.0796356201171875,-0.98712158203125,0.13330078125
1773251592790498600,10.55549853515625,0.0814666748046875,-0.988739013671875,0.1322021484375
1773251592800535600,10.56553564453125,0.0868988037109375,-0.9867401123046875,0.1355438232421875
1773251592810572500,10.575572509765625,0.09283447265625,-0.9852752685546875,0.1387939453125
1773251592820609500,10.585609619140625,0.09515380859375,-0.98590087890625,0.1398468017578125
1773251592830645500,10.5956455078125,0.0934906005859375,-0.9858551025390625,0.1413421630859375
1773251592840682500,10.6056826171875,0.090301513671875,-0.9879913330078125,0.13958740234375
1773251592850719500,10.615719482421875,0.08819580078125,-0.988037109375,0.140289306640625
1773251592860755500,10.62575537109375,0.087158203125,-0.9873199462890625,0.139068603515625
1773251592870792700,10.635792724609376,0.08966064453125,-0.9839019775390625,0.136688232421875
1773251592880829700,10.64582958984375,0.0940704345703125,-0.981048583984375,0.1378021240234375
1773251592890866400,10.655866455078124,0.0924530029296875,-0.978790283203125,0.137939453125
1773251592900902400,10.66590234375,0.0877532958984375,-0.978546142578125,0.1371917724609375
1773251592910939400,10.675939453125,0.087005615234375,-0.9833221435546875,0.1405029296875
1773251592920976600,10.6859765625,0.0841827392578125,-0.9893646240234375,0.140655517578125
1773251592931012600,10.6960126953125,0.0847625732421875,-0.9904022216796875,0.140960693359375
1773251592941049600,10.706049560546875,0.0880584716796875,-0.98834228515625,0.1414642333984375
1773251592951086600,10.716086669921875,0.091339111328125,-0.9851531982421875,0.1367340087890625
1773251592961123600,10.72612353515625,0.0918121337890625,-0.9858856201171875,0.135528564453125
1773251592971159600,10.73615966796875,0.0900421142578125,-0.9843597412109375,0.137939453125
1773251592981196500,10.746196533203126,0.0908355712890625,-0.9823760986328125,0.1394195556640625
1773251592991233500,10.756233642578126,0.0914306640625,-0.9815521240234375,0.13836669921875
1773251593001269500,10.76626953125,0.0878753662109375,-0.9820556640625,0.1370391845703125
1773251593011306500,10.776306396484374,0.0858612060546875,-0.9843902587890625,0.1404571533203125
1773251593021343500,10.786343505859374,0.0869598388671875,-0.983184814453125,0.1423492431640625
1773251593031380500,10.79638037109375,0.0888519287109375,-0.9819793701171875,0.14178466796875
1773251593041416700,10.806416748046875,0.092437744140625,-0.9833984375,0.1405792236328125
1773251593051453700,10.81645361328125,0.0929107666015625,-0.9813385009765625,0.1386566162109375
1773251593061490400,10.826490478515625,0.091461181640625,-0.98175048828125,0.138916015625
1773251593071526400,10.8365263671875,0.089630126953125,-0.9833221435546875,0.142547607421875
1773251593081563400,10.8465634765625,0.090667724609375,-0.9841156005859375,0.1443328857421875
1773251593091600400,10.856600341796875,0.0894317626953125,-0.9854278564453125,0.1431732177734375
1773251593101637600,10.8666376953125,0.0861358642578125,-0.9850921630859375,0.143646240234375
1773251593111673600,10.876673583984376,0.089935302734375,-0.98480224609375,0.1415557861328125
1773251593121710600,10.886710693359374,0.0938873291015625,-0.9853515625,0.1444244384765625
1773251593131747600,10.89674755859375,0.090362548828125,-0.9818878173828125,0.1453399658203125
1773251593141783600,10.906783447265624,0.090087890625,-0.981231689453125,0.1454620361328125
1773251593151820500,10.916820556640625,0.0896148681640625,-0.983367919921875,0.145416259765625
1773251593161857500,10.926857421875,0.0892486572265625,-0.9848175048828125,0.1448974609375
1773251593171894500,10.93689453125,0.0895538330078125,-0.9845123291015625,0.1452789306640625
1773251593181930500,10.946930419921875,0.0902252197265625,-0.982666015625,0.1439971923828125
1773251593191967500,10.956967529296875,0.08917236328125,-0.983856201171875,0.1427459716796875
1773251593202004500,10.96700439453125,0.0908050537109375,-0.98291015625,0.1428375244140625
1773251593212040400,10.97704052734375,0.091705322265625,-0.9826507568359375,0.144622802734375
1773251593222077700,10.98707763671875,0.0916748046875,-0.9827117919921875,0.145843505859375
1773251593232114400,10.997114501953124,0.0908355712890625,-0.9847412109375,0.1437530517578125
1773251593242151400,11.0071513671875,0.0895538330078125,-0.984161376953125,0.1431427001953125
1773251593252187400,11.0171875,0.0894622802734375,-0.9832611083984375,0.139984130859375
1773251593262224400,11.027224365234375,0.090545654296875,-0.9827117919921875,0.138671875
1773251593272261600,11.03726171875,0.093841552734375,-0.9827880859375,0.14044189453125
1773251593282297600,11.047297607421875,0.093719482421875,-0.982086181640625,0.14117431640625
1773251593292334600,11.05733447265625,0.092803955078125,-0.983551025390625,0.143035888671875
1773251593302371600,11.06737158203125,0.090484619140625,-0.9819793701171875,0.1423492431640625
1773251593312408300,11.077408203125,0.08990478515625,-0.9836273193359375,0.142425537109375
1773251593322444500,11.087444580078126,0.0909423828125,-0.9868316650390625,0.1443634033203125
1773251593332481500,11.0974814453125,0.0887451171875,-0.9842529296875,0.1447601318359375
1773251593342518500,11.1075185546875,0.0855255126953125,-0.9826507568359375,0.14324951171875
1773251593352554500,11.117554443359374,0.087066650390625,-0.98406982421875,0.14361572265625
1773251593362591500,11.127591552734375,0.092041015625,-0.9832305908203125,0.1443328857421875
1773251593372628500,11.13762841796875,0.0946807861328125,-0.9836883544921875,0.141998291015625
1773251593382665700,11.147665771484375,0.096282958984375,-0.9833831787109375,0.140838623046875
1773251593392701700,11.15770166015625,0.0923614501953125,-0.98370361328125,0.1394500732421875
1773251593402738700,11.16773876953125,0.0900115966796875,-0.98675537109375,0.14105224609375
1773251593412775400,11.177775390625,0.0911102294921875,-0.9859771728515625,0.139007568359375
1773251593422811400,11.187811279296875,0.0919036865234375,-0.98504638671875,0.141326904296875
1773251593432848400,11.197848388671876,0.0968017578125,-0.9849395751953125,0.1454620361328125
1773251593442885600,11.2078857421875,0.103759765625,-0.9857330322265625,0.14544677734375
1773251593452921600,11.217921630859376,0.085479736328125,-0.985809326171875,0.145050048828125
1773251593462958600,11.22795849609375,0.0827484130859375,-0.9849853515625,0.145843505859375
1773251593472995600,11.23799560546875,0.0872955322265625,-0.9831390380859375,0.14715576171875
1773251593483032600,11.248032470703125,0.091827392578125,-0.983734130859375,0.1442718505859375
1773251593493068500,11.258068603515625,0.0978851318359375,-0.9808197021484375,0.1421051025390625
1773251593503105300,11.268105224609375,0.09747314453125,-0.9792633056640625,0.1453094482421875
1773251593513142300,11.278142333984375,0.0880889892578125,-0.9821624755859375,0.1489410400390625
1773251593523178200,11.28817822265625,0.08038330078125,-0.9786376953125,0.149444580078125
1773251593533215200,11.29821533203125,0.0882110595703125,-0.97662353515625,0.149139404296875
1773251593543252500,11.30825244140625,0.106719970703125,-0.980194091796875,0.14715576171875
1773251593553289500,11.31828955078125,0.113311767578125,-0.985107421875,0.1402740478515625
1773251593563325400,11.328325439453126,0.09417724609375,-0.9896392822265625,0.1344146728515625
1773251593573362400,11.338362548828124,0.0726470947265625,-0.991424560546875,0.1386260986328125
1773251593583399200,11.348399169921874,0.080078125,-0.9882659912109375,0.146514892578125
1773251593593436400,11.3584365234375,0.097015380859375,-0.981201171875,0.1488800048828125
1773251593603472400,11.368472412109375,0.104339599609375,-0.980133056640625,0.145477294921875
1773251593613509400,11.37850927734375,0.0984954833984375,-0.97882080078125,0.1413726806640625
1773251593623546400,11.38854638671875,0.087188720703125,-0.9802703857421875,0.133148193359375
1773251593633582300,11.398582275390625,0.0771942138671875,-0.9842376708984375,0.135498046875
1773251593643619300,11.408619384765625,0.0788116455078125,-0.982940673828125,0.14715576171875
1773251593653656600,11.418656494140626,0.0879974365234375,-0.983245849609375,0.150665283203125
1773251593663693300,11.428693359375,0.094573974609375,-0.986541748046875,0.14599609375
1773251593673729500,11.4387294921875,0.0953826904296875,-0.9875946044921875,0.142425537109375
1773251593683766300,11.448766357421874,0.0917510986328125,-0.988555908203125,0.145477294921875
1773251593693803300,11.45880322265625,0.0885162353515625,-0.98895263671875,0.145355224609375
1773251593703839200,11.468839111328125,0.0898895263671875,-0.986358642578125,0.1414642333984375
1773251593713876500,11.47887646484375,0.089080810546875,-0.9823455810546875,0.1452178955078125
1773251593723913500,11.48891357421875,0.0909576416015625,-0.9818115234375,0.148468017578125
1773251593733949400,11.498949462890625,0.0923004150390625,-0.9821014404296875,0.146881103515625
1773251593743986400,11.508986328125,0.0921783447265625,-0.98321533203125,0.14459228515625
1773251593754023400,11.5190234375,0.0898895263671875,-0.9871978759765625,0.145965576171875
1773251593764060400,11.529060302734376,0.0833282470703125,-0.9884033203125,0.1467742919921875
1773251593774096400,11.539096435546876,0.0836944580078125,-0.989837646484375,0.1485595703125
1773251593784133400,11.54913330078125,0.104522705078125,-0.9901580810546875,0.1460418701171875
1773251593794170400,11.55917041015625,0.0863800048828125,-0.98468017578125,0.1443023681640625
1773251593804206300,11.569206298828124,0.072845458984375,-0.9793548583984375,0.1480255126953125
1773251593814243300,11.579243408203125,0.0807952880859375,-0.9766845703125,0.1483154296875
1773251593824280600,11.589280517578125,0.092132568359375,-0.9768524169921875,0.145416259765625
1773251593834317600,11.599317626953125,0.094573974609375,-0.9832000732421875,0.1411895751953125
1773251593844353500,11.609353515625,0.0916900634765625,-0.9891510009765625,0.140716552734375
1773251593854390300,11.619390380859375,0.0878448486328125,-0.9887847900390625,0.1421356201171875
1773251593864427300,11.62942724609375,0.0885772705078125,-0.9852447509765625,0.147186279296875
1773251593874463200,11.639463134765625,0.0910186767578125,-0.9824676513671875,0.14776611328125
1773251593884500500,11.64950048828125,0.09283447265625,-0.9788055419921875,0.14483642578125
1773251593894537500,11.659537353515624,0.0899810791015625,-0.978607177734375,0.143951416015625
1773251593904574500,11.669574462890624,0.0888824462890625,-0.97967529296875,0.141021728515625
1773251593914610400,11.6796103515625,0.088043212890625,-0.98101806640625,0.138580322265625
1773251593924647400,11.6896474609375,0.08941650390625,-0.9847564697265625,0.1420440673828125
1773251593934684400,11.699684326171875,0.0887298583984375,-0.985626220703125,0.141204833984375
1773251593944720400,11.709720458984375,0.0881195068359375,-0.98638916015625,0.146148681640625
1773251593954757400,11.71975732421875,0.0899810791015625,-0.984039306640625,0.1494903564453125
1773251593964794400,11.72979443359375,0.094146728515625,-0.9814453125,0.1499481201171875
1773251593974831400,11.739831298828125,0.094085693359375,-0.9797515869140625,0.148895263671875
1773251593984867300,11.749867431640626,0.089874267578125,-0.9849395751953125,0.1462249755859375
1773251593994904600,11.759904541015626,0.0873870849609375,-0.9913330078125,0.1434326171875
1773251594004941600,11.769941650390624,0.0908203125,-0.9933013916015625,0.1436004638671875
1773251594014977500,11.7799775390625,0.0928497314453125,-0.9920654296875,0.1487274169921875
1773251594025014500,11.7900146484375,0.0911407470703125,-0.98907470703125,0.1538543701171875
1773251594035051300,11.80005126953125,0.0895843505859375,-0.98382568359375,0.15570068359375
1773251594045088300,11.810088134765625,0.0883941650390625,-0.9813079833984375,0.1518402099609375
1773251594055124500,11.82012451171875,0.0869293212890625,-0.980377197265625,0.147247314453125
1773251594065161500,11.830161376953125,0.085968017578125,-0.9829254150390625,0.1443939208984375
1773251594075198500,11.840198486328125,0.0826873779296875,-0.9859619140625,0.1463775634765625
1773251594085234400,11.850234375,0.0846710205078125,-0.9861602783203125,0.144622802734375
1773251594095271400,11.860271484375,0.08807373046875,-0.9830780029296875,0.14666748046875
1773251594105308400,11.870308349609376,0.0894775390625,-0.9779815673828125,0.150787353515625
1773251594115345400,11.880345458984374,0.089080810546875,-0.9763336181640625,0.1506805419921875
1773251594125381400,11.89038134765625,0.0861358642578125,-0.9788818359375,0.14849853515625
1773251594135418400,11.90041845703125,0.085235595703125,-0.9816436767578125,0.1473846435546875
1773251594145455400,11.910455322265625,0.0875701904296875,-0.9815826416015625,0.1494293212890625
1773251594155491300,11.9204912109375,0.0892791748046875,-0.982452392578125,0.145477294921875
1773251594165528300,11.9305283203125,0.0912322998046875,-0.9816741943359375,0.14501953125
1773251594175565600,11.940565673828125,0.0903778076171875,-0.981658935546875,0.145294189453125
1773251594185602300,11.950602294921875,0.0890045166015625,-0.9805755615234375,0.1465911865234375
1773251594195638500,11.960638427734375,0.0868377685546875,-0.9805450439453125,0.1473541259765625
1773251594205675300,11.97067529296875,0.0924224853515625,-0.9827728271484375,0.145263671875
1773251594215712300,11.980712158203126,0.0924072265625,-0.985595703125,0.1447906494140625
1773251594225748200,11.990748291015626,0.0920867919921875,-0.98724365234375,0.14599609375
1773251594235785500,12.000785400390624,0.09124755859375,-0.989105224609375,0.147308349609375
1773251594245822500,12.010822509765624,0.09051513671875,-0.9879913330078125,0.1483154296875
1773251594255859500,12.020859375,0.0907135009765625,-0.983245849609375,0.1473236083984375
1773251594265895400,12.0308955078125,0.0898284912109375,-0.983428955078125,0.1488800048828125
1773251594275932400,12.040932373046875,0.088775634765625,-0.9834136962890625,0.1476287841796875
1773251594285969400,12.050969482421875,0.09234619140625,-0.9854583740234375,0.1471405029296875
1773251594296005400,12.06100537109375,0.0934600830078125,-0.98773193359375,0.1478729248046875
1773251594306042400,12.07104248046875,0.0923309326171875,-0.9884490966796875,0.1488037109375
1773251594316079400,12.081079345703126,0.091033935546875,-0.98651123046875,0.151214599609375
1773251594326116400,12.091116455078126,0.0907745361328125,-0.9850616455078125,0.1526031494140625
1773251594336152300,12.10115234375,0.0913238525390625,-0.982635498046875,0.147674560546875
1773251594346189600,12.111189453125,0.093994140625,-0.9812164306640625,0.1457061767578125
1773251594356226600,12.1212265625,0.0941314697265625,-0.9815673828125,0.1440582275390625
1773251594366262500,12.131262451171875,0.0940399169921875,-0.9827880859375,0.1468505859375
1773251594376299300,12.14129931640625,0.0941162109375,-0.9833984375,0.1466064453125
1773251594386336300,12.151336181640625,0.09344482421875,-0.9840545654296875,0.1483154296875
1773251594396373500,12.16137353515625,0.090240478515625,-0.9832763671875,0.1480712890625
1773251594406409500,12.171409423828125,0.0894927978515625,-0.981597900390625,0.1451416015625
1773251594416446500,12.181446533203125,0.091888427734375,-0.9820404052734375,0.1416778564453125
1773251594426483500,12.1914833984375,0.094451904296875,-0.98004150390625,0.1403045654296875
1773251594436519400,12.20151953125,0.0952606201171875,-0.977020263671875,0.1448211669921875
1773251594446556400,12.211556396484376,0.0932464599609375,-0.9788665771484375,0.146392822265625
1773251594456593400,12.221593505859374,0.0920867919921875,-0.982421875,0.146331787109375
1773251594466630400,12.23163037109375,0.0917510986328125,-0.9869842529296875,0.1454010009765625
1773251594476666400,12.241666259765625,0.0900726318359375,-0.98797607421875,0.1449737548828125
1773251594486703400,12.251703369140625,0.0916900634765625,-0.9833984375,0.1429443359375
1773251594496740400,12.261740234375,0.0935821533203125,-0.98126220703125,0.14337158203125
1773251594506776300,12.2717763671875,0.0969390869140625,-0.9791717529296875,0.1429443359375
1773251594516813600,12.2818134765625,0.1009674072265625,-0.978668212890625,0.14288330078125
1773251594526850600,12.2918505859375,0.10699462890625,-0.981658935546875,0.143890380859375
1773251594536886500,12.301886474609375,0.0999603271484375,-0.984039306640625,0.144927978515625
1773251594546923500,12.311923583984376,0.06890869140625,-0.985076904296875,0.14556884765625
1773251594556960300,12.321960205078126,0.0733184814453125,-0.9854888916015625,0.1466827392578125
1773251594566997200,12.331997314453124,0.1002655029296875,-0.9866790771484375,0.1446533203125
1773251594577033500,12.342033447265624,0.1126251220703125,-0.9837799072265625,0.1430511474609375
1773251594587070500,12.352070556640625,0.1030731201171875,-0.976348876953125,0.14154052734375
1773251594597107500,12.362107421875,0.089019775390625,-0.974609375,0.141021728515625
1773251594607143400,12.372143310546875,0.079437255859375,-0.9752044677734375,0.1424713134765625
1773251594617180400,12.382180419921875,0.08935546875,-0.9764404296875,0.1431884765625
1773251594627217400,12.392217529296875,0.111083984375,-0.9822235107421875,0.142822265625
1773251594637254400,12.40225439453125,0.1256866455078125,-0.98602294921875,0.1393280029296875
1773251594647290400,12.412290283203125,0.11474609375,-0.9892730712890625,0.13604736328125
1773251594657327400,12.422327392578126,0.0874786376953125,-0.9870452880859375,0.13916015625
1773251594667364400,12.4323642578125,0.07867431640625,-0.9824371337890625,0.143280029296875
1773251594677400300,12.442400390625,0.092742919921875,-0.9809417724609375,0.144683837890625
1773251594687437300,12.452437255859374,0.104217529296875,-0.9779510498046875,0.1416168212890625
1773251594697474600,12.462474609375,0.105865478515625,-0.9781341552734375,0.135650634765625
1773251594707511600,12.472511474609375,0.0979766845703125,-0.9810028076171875,0.1310272216796875
1773251594717547500,12.482547607421875,0.0887603759765625,-0.9846343994140625,0.13665771484375
1773251594727584300,12.492584228515625,0.0848236083984375,-0.9854583740234375,0.1412200927734375
1773251594737621200,12.502621337890625,0.087371826171875,-0.984954833984375,0.1405029296875
1773251594747657200,12.5126572265625,0.0934295654296875,-0.986785888671875,0.1408843994140625
1773251594757694500,12.522694580078126,0.0991058349609375,-0.9842681884765625,0.140472412109375
1773251594767731500,12.5327314453125,0.0964508056640625,-0.9831085205078125,0.14178466796875
1773251594777768400,12.5427685546875,0.0955352783203125,-0.98486328125,0.1435089111328125
1773251594787804400,12.552804443359374,0.1020965576171875,-0.9864654541015625,0.143646240234375
1773251594797841400,12.56284130859375,0.101226806640625,-0.987152099609375,0.143768310546875
1773251594807878400,12.57287841796875,0.0931549072265625,-0.987335205078125,0.1427001953125
1773251594817914400,12.582914306640625,0.0915679931640625,-0.988189697265625,0.14300537109375
1773251594827951400,12.592951416015625,0.094329833984375,-0.98583984375,0.1381683349609375
1773251594837988400,12.60298828125,0.09393310546875,-0.986083984375,0.136260986328125
1773251594848025300,12.613025390625,0.085296630859375,-0.985015869140625,0.13714599609375
1773251594858061300,12.623061279296875,0.095001220703125,-0.9849395751953125,0.1398468017578125
1773251594868098600,12.6330986328125,0.105194091796875,-0.9861297607421875,0.1393280029296875
1773251594878135600,12.643135498046876,0.0819854736328125,-0.980621337890625,0.1435546875
1773251594888171500,12.653171630859376,0.0777435302734375,-0.9761505126953125,0.144744873046875
1773251594898208300,12.663208251953124,0.0921173095703125,-0.978057861328125,0.14068603515625
1773251594908245200,12.673245361328124,0.0973358154296875,-0.9821929931640625,0.139739990234375
1773251594918282500,12.683282470703125,0.0948638916015625,-0.9849853515625,0.13812255859375
1773251594928318500,12.693318359375,0.089019775390625,-0.98602294921875,0.1372528076171875
1773251594938355500,12.70335546875,0.0914306640625,-0.9851837158203125,0.139892578125
1773251594948392400,12.713392333984375,0.097564697265625,-0.98211669921875,0.14263916015625
1773251594958428400,12.723428466796875,0.101409912109375,-0.98095703125,0.14105224609375
1773251594968465400,12.73346533203125,0.0944366455078125,-0.9815673828125,0.1404571533203125
1773251594978502400,12.74350244140625,0.086456298828125,-0.98236083984375,0.1429443359375
1773251594988539400,12.753539306640626,0.0834808349609375,-0.983489990234375,0.1426544189453125
1773251594998575400,12.763575439453126,0.0872955322265625,-0.9834136962890625,0.1409149169921875
1773251595008612400,12.7736123046875,0.0950927734375,-0.983062744140625,0.14068603515625
1773251595018649300,12.7836494140625,0.09783935546875,-0.98492431640625,0.140167236328125
1773251595028685300,12.793685302734374,0.0959014892578125,-0.9827423095703125,0.14288330078125
1773251595038722600,12.80372265625,0.0913848876953125,-0.98236083984375,0.14599609375
1773251595048759600,12.813759521484375,0.0863037109375,-0.982574462890625,0.148681640625
1773251595058796300,12.82379638671875,0.087493896484375,-0.9864349365234375,0.1502227783203125
1773251595068832500,12.83383251953125,0.0892791748046875,-0.9879608154296875,0.146575927734375
1773251595078869200,12.843869140625,0.09051513671875,-0.9871826171875,0.1433868408203125
1773251595088906200,12.85390625,0.0905914306640625,-0.986358642578125,0.1428985595703125
1773251595098942500,12.8639423828125,0.09136962890625,-0.9852752685546875,0.144012451171875
1773251595108979500,12.8739794921875,0.0906524658203125,-0.98486328125,0.1433868408203125
1773251595119016400,12.884016357421874,0.087432861328125,-0.984344482421875,0.145294189453125
1773251595129053400,12.894053466796874,0.087890625,-0.9845733642578125,0.1477203369140625
1773251595139089400,12.90408935546875,0.0868377685546875,-0.9831085205078125,0.1455230712890625
1773251595149126400,12.91412646484375,0.08197021484375,-0.9862213134765625,0.1483306884765625
1773251595159163400,12.924163330078125,0.0790557861328125,-0.9861602783203125,0.1476287841796875
1773251595169199400,12.934199462890625,0.08270263671875,-0.9845733642578125,0.147430419921875
1773251595179236400,12.944236328125,0.0877227783203125,-0.9812469482421875,0.148529052734375
1773251595189273300,12.9542734375,0.0867767333984375,-0.9804229736328125,0.1506195068359375
1773251595199309300,12.964309326171875,0.085205078125,-0.9829254150390625,0.1457061767578125
1773251595209346300,12.97434619140625,0.0844573974609375,-0.9836273193359375,0.1439666748046875
1773251595219383600,12.984383544921876,0.084228515625,-0.9852142333984375,0.1416015625
1773251595229420500,12.994420654296874,0.0838165283203125,-0.9832305908203125,0.1436614990234375
1773251595239456500,13.00445654296875,0.0824432373046875,-0.9808807373046875,0.1468505859375
1773251595249493200,13.0144931640625,0.0842437744140625,-0.9798583984375,0.148101806640625
1773251595259530200,13.0245302734375,0.0847625732421875,-0.9803466796875,0.1472930908203125
1773251595269566200,13.034566162109375,0.08551025390625,-0.982025146484375,0.146392822265625
1773251595279603500,13.044603515625,0.0855560302734375,-0.98431396484375,0.1448974609375
1773251595289640400,13.054640380859375,0.0852813720703125,-0.986541748046875,0.1454010009765625
