time,seconds_elapsed,z,y,x
1773251632043509500,0.058509521484375,-0.949188232421875,-0.5052642822265625,0.043975830078125
1773251632053545500,0.06854541015625,-0.9272308349609375,-0.50634765625,0.006683349609375
1773251632063582700,0.078582763671875,-0.9105987548828125,-0.5323486328125,-0.0093841552734375
1773251632073619700,0.08861962890625,-0.8923187255859375,-0.56549072265625,-0.0206451416015625
1773251632083656400,0.098656494140625,-0.8883209228515625,-0.652557373046875,-0.0025787353515625
1773251632093693400,0.108693359375,-0.8695220947265625,-0.666839599609375,0.038421630859375
1773251632103730700,0.118730712890625,-0.906524658203125,-0.62286376953125,0.025665283203125
1773251632113767700,0.128767578125,-0.936370849609375,-0.6038818359375,0.016265869140625
1773251632123803600,0.1388037109375,-0.9382476806640625,-0.5824127197265625,-0.0006256103515625
1773251632133840600,0.148840576171875,-0.91888427734375,-0.5592041015625,0.013336181640625
1773251632143877600,0.158877685546875,-0.886962890625,-0.5698699951171875,0.027069091796875
1773251632153914400,0.168914306640625,-0.8209381103515625,-0.6087493896484375,-0.0086212158203125
1773251632163951600,0.17895166015625,-0.7462005615234375,-0.66064453125,-0.04498291015625
1773251632173988600,0.188988525390625,-0.6988067626953125,-0.71319580078125,-0.0586395263671875
1773251632184025600,0.199025634765625,-0.6773834228515625,-0.823211669921875,-0.031280517578125
1773251632194061600,0.2090615234375,-0.658721923828125,-0.932769775390625,0.0190277099609375
1773251632204098600,0.2190986328125,-0.5952606201171875,-0.8655853271484375,0.0147705078125
1773251632214135600,0.229135498046875,-0.5324554443359375,-0.7470550537109375,0.0345916748046875
1773251632224172500,0.239172607421875,-0.522064208984375,-0.707427978515625,0.0510406494140625
1773251632234209500,0.24920947265625,-0.498809814453125,-0.744903564453125,0.0322113037109375
1773251632244246500,0.25924658203125,-0.470245361328125,-0.7986907958984375,0.0457000732421875
1773251632254282500,0.269282470703125,-0.4398193359375,-0.83563232421875,0.0925445556640625
1773251632264319700,0.27931982421875,-0.392120361328125,-0.8541717529296875,0.0897064208984375
1773251632274356500,0.2893564453125,-0.352691650390625,-0.8468475341796875,0.1128997802734375
1773251632284393500,0.2993935546875,-0.3155364990234375,-0.8490142822265625,0.136688232421875
1773251632294430500,0.309430419921875,-0.2519989013671875,-0.868408203125,0.141693115234375
1773251632304467700,0.3194677734375,-0.1901092529296875,-0.879364013671875,0.170684814453125
1773251632314504700,0.329504638671875,-0.15142822265625,-0.871429443359375,0.19769287109375
1773251632324541700,0.339541748046875,-0.1180877685546875,-0.878387451171875,0.204620361328125
1773251632334577700,0.34957763671875,-0.081939697265625,-0.8946685791015625,0.205169677734375
1773251632344614400,0.359614501953125,-0.0398101806640625,-0.933380126953125,0.1988983154296875
1773251632354651400,0.3696513671875,-0.005157470703125,-0.9715576171875,0.2019500732421875
1773251632364688600,0.379688720703125,0.0092620849609375,-0.9681549072265625,0.2401885986328125
1773251632374725600,0.3897255859375,0.0198822021484375,-0.95709228515625,0.238189697265625
1773251632384762600,0.3997626953125,0.0283355712890625,-0.9488067626953125,0.2196197509765625
1773251632394799400,0.40979931640625,0.0644683837890625,-0.9341888427734375,0.223419189453125
1773251632404835600,0.419835693359375,0.12994384765625,-0.9376373291015625,0.2222747802734375
1773251632414872600,0.42987255859375,0.1916046142578125,-0.9659271240234375,0.2001190185546875
1773251632424909600,0.43990966796875,0.2588348388671875,-0.9904937744140625,0.1837921142578125
1773251632434946600,0.449946533203125,0.323516845703125,-1.0177154541015625,0.230194091796875
1773251632444983600,0.459983642578125,0.39422607421875,-1.038787841796875,0.2943878173828125
1773251632455020500,0.4700205078125,0.4686279296875,-1.0119476318359375,0.3104400634765625
1773251632465057500,0.4800576171875,0.4696044921875,-0.9627838134765625,0.2896270751953125
1773251632475093500,0.490093505859375,0.376190185546875,-0.9197845458984375,0.24591064453125
1773251632485130500,0.500130615234375,0.280548095703125,-0.891204833984375,0.228363037109375
1773251632495167500,0.51016748046875,0.202362060546875,-0.8980255126953125,0.17138671875
1773251632505204700,0.520204833984375,0.1551666259765625,-0.912322998046875,0.112548828125
1773251632515241700,0.53024169921875,0.1441802978515625,-0.92864990234375,0.0731964111328125
1773251632525278500,0.540278564453125,0.2129974365234375,-0.9720001220703125,0.0812225341796875
1773251632535315500,0.5503154296875,0.2721710205078125,-0.9839935302734375,0.1579132080078125
1773251632545351400,0.560351318359375,0.29266357421875,-0.9622650146484375,0.204864501953125
1773251632555388400,0.570388427734375,0.31683349609375,-0.9182281494140625,0.21649169921875
1773251632565425700,0.58042578125,0.3440093994140625,-0.882537841796875,0.209503173828125
1773251632575462700,0.590462646484375,0.2887725830078125,-0.8635101318359375,0.178924560546875
1773251632585499600,0.600499755859375,0.2256011962890625,-0.865692138671875,0.150146484375
1773251632595536400,0.610536376953125,0.2075042724609375,-0.8792572021484375,0.14031982421875
1773251632605573400,0.620573486328125,0.1965179443359375,-0.9080657958984375,0.11859130859375
1773251632615610600,0.630610595703125,0.189666748046875,-0.9312744140625,0.095733642578125
1773251632625646600,0.640646484375,0.1691741943359375,-0.93878173828125,0.0970458984375
1773251632635683600,0.65068359375,0.18731689453125,-0.88958740234375,0.17608642578125
1773251632645720600,0.660720458984375,0.2542877197265625,-0.821868896484375,0.2953643798828125
1773251632655757300,0.67075732421875,0.3536529541015625,-0.9587860107421875,0.1863861083984375
1773251632665794600,0.680794677734375,0.386993408203125,-0.999420166015625,0.20013427734375
1773251632675831600,0.69083154296875,0.339385986328125,-0.9895782470703125,0.234344482421875
1773251632685868500,0.70086865234375,0.18829345703125,-1.0071258544921875,0.1575927734375
1773251632695904500,0.710904541015625,0.1004638671875,-1.0169525146484375,0.061248779296875
1773251632705941500,0.72094140625,0.039947509765625,-0.9876556396484375,0.0057373046875
1773251632715978500,0.730978515625,0.0861968994140625,-0.984466552734375,0.0267486572265625
1773251632726015500,0.741015380859375,0.2024383544921875,-0.97967529296875,0.137939453125
1773251632736052500,0.751052490234375,0.2514190673828125,-0.98797607421875,0.1588592529296875
1773251632746089500,0.76108935546875,0.2305908203125,-1.0254669189453125,0.1498565673828125
1773251632756126500,0.77112646484375,0.1861572265625,-1.049652099609375,0.1546630859375
1773251632766162700,0.78116259765625,0.142913818359375,-1.0450286865234375,0.131866455078125
1773251632776199700,0.79119970703125,0.0058135986328125,-0.9958038330078125,0.02996826171875
1773251632786236400,0.801236328125,0.00482177734375,-0.95391845703125,-0.0049896240234375
1773251632796273400,0.8112734375,0.16094970703125,-0.9480133056640625,0.1373138427734375
1773251632806310400,0.821310302734375,0.26708984375,-0.963134765625,0.27691650390625
1773251632816347600,0.83134765625,0.262481689453125,-0.9785308837890625,0.265594482421875
1773251632826384600,0.841384521484375,0.1996612548828125,-0.9792633056640625,0.18170166015625
1773251632836421400,0.85142138671875,0.152801513671875,-0.9782257080078125,0.129150390625
1773251632846457600,0.86145751953125,0.1450958251953125,-0.9780120849609375,0.1231231689453125
1773251632856494300,0.871494384765625,0.14410400390625,-0.9658966064453125,0.1396331787109375
1773251632866531600,0.881531494140625,0.128265380859375,-0.9520111083984375,0.173675537109375
1773251632876568600,0.891568603515625,0.14849853515625,-0.9584197998046875,0.191741943359375
1773251632886605600,0.90160546875,0.1634063720703125,-0.96893310546875,0.1929931640625
1773251632896642600,0.911642578125,0.1707611083984375,-0.976776123046875,0.177520751953125
1773251632906679600,0.921679443359375,0.1830902099609375,-0.9823150634765625,0.158416748046875
1773251632916715500,0.931715576171875,0.18572998046875,-0.989990234375,0.1528778076171875
1773251632926752500,0.94175244140625,0.1866607666015625,-1.00091552734375,0.1266632080078125
1773251632936789500,0.95178955078125,0.1871337890625,-1.0072784423828125,0.10552978515625
1773251632946826500,0.961826416015625,0.1681976318359375,-1.00042724609375,0.0951080322265625
1773251632956863500,0.971863525390625,0.1524505615234375,-0.9879608154296875,0.0904998779296875
1773251632966900500,0.981900390625,0.1686553955078125,-0.9718170166015625,0.092987060546875
1773251632976937500,0.9919375,0.1932525634765625,-0.96124267578125,0.0947113037109375
1773251632986973400,1.001973388671875,0.217041015625,-0.9617767333984375,0.09979248046875
1773251632997010400,1.012010498046875,0.2377777099609375,-0.952362060546875,0.090087890625
1773251633007047400,1.02204736328125,0.2172698974609375,-0.9467010498046875,0.090118408203125
1773251633017084700,1.032084716796875,0.1988677978515625,-0.9648590087890625,0.0728607177734375
1773251633027121700,1.04212158203125,0.2055511474609375,-0.9845123291015625,0.0583648681640625
1773251633037158400,1.052158447265625,0.1917724609375,-1.0042572021484375,0.0492095947265625
1773251633047195400,1.0621953125,0.1522674560546875,-1.01654052734375,0.055938720703125
1773251633057231400,1.0722314453125,0.1309967041015625,-1.0131683349609375,0.060272216796875
1773251633067268600,1.0822685546875,0.15582275390625,-0.9991302490234375,0.0644073486328125
1773251633077305600,1.0923056640625,0.1894073486328125,-0.9856719970703125,0.080413818359375
1773251633087342600,1.102342529296875,0.2173004150390625,-0.9804840087890625,0.1003265380859375
1773251633097379300,1.11237939453125,0.23095703125,-0.978424072265625,0.1098175048828125
1773251633107416600,1.12241650390625,0.2262420654296875,-0.97052001953125,0.1050567626953125
1773251633117453600,1.13245361328125,0.1859283447265625,-0.968231201171875,0.0911407470703125
1773251633127490600,1.142490478515625,0.145751953125,-0.9789886474609375,0.07232666015625
1773251633137526500,1.152526611328125,0.124969482421875,-0.9956207275390625,0.067291259765625
1773251633147563500,1.1625634765625,0.141265869140625,-1.0064239501953125,0.0724334716796875
1773251633157600500,1.1726005859375,0.1487274169921875,-0.9919281005859375,0.0921630859375
1773251633167637500,1.182637451171875,0.1484527587890625,-0.95782470703125,0.1133270263671875
1773251633177674500,1.192674560546875,0.17669677734375,-0.924407958984375,0.1342010498046875
1773251633187711500,1.20271142578125,0.195465087890625,-0.9084320068359375,0.152862548828125
1773251633197748500,1.21274853515625,0.183502197265625,-0.9106597900390625,0.1549835205078125
1773251633207784400,1.222784423828125,0.182769775390625,-0.9292755126953125,0.16656494140625
1773251633217821700,1.23282177734375,0.162445068359375,-0.9351959228515625,0.2100067138671875
1773251633227858400,1.2428583984375,0.139923095703125,-0.937591552734375,0.2195587158203125
1773251633237895400,1.2528955078125,0.1222991943359375,-0.937591552734375,0.1652984619140625
1773251633247932400,1.262932373046875,0.1034393310546875,-0.946258544921875,0.1270904541015625
1773251633257969700,1.2729697265625,0.1123504638671875,-0.9677276611328125,0.148406982421875
1773251633268006700,1.283006591796875,0.1177215576171875,-0.9846954345703125,0.2004852294921875
1773251633278042600,1.293042724609375,0.104461669921875,-0.994415283203125,0.2290802001953125
1773251633288079600,1.30307958984375,0.1080474853515625,-0.999755859375,0.226409912109375
1773251633298116400,1.313116455078125,0.147979736328125,-1.00714111328125,0.2065277099609375
1773251633308153600,1.323153564453125,0.178924560546875,-1.002593994140625,0.189849853515625
1773251633318190600,1.333190673828125,0.1934814453125,-0.9871368408203125,0.169097900390625
1773251633328227600,1.3432275390625,0.161376953125,-0.961456298828125,0.1602783203125
1773251633338264600,1.3532646484375,0.1177978515625,-0.94757080078125,0.1537322998046875
1773251633348301300,1.36330126953125,0.0952911376953125,-0.9467926025390625,0.1519317626953125
1773251633358337300,1.373337158203125,0.0946044921875,-0.95745849609375,0.151611328125
1773251633368374500,1.38337451171875,0.1030731201171875,-0.97833251953125,0.140380859375
1773251633378411500,1.39341162109375,0.1110687255859375,-0.996124267578125,0.1320648193359375
1773251633388448500,1.403448486328125,0.115936279296875,-1.003448486328125,0.1361846923828125
1773251633398485500,1.413485595703125,0.1262054443359375,-0.9993896484375,0.1518096923828125
1773251633408522500,1.4235224609375,0.133514404296875,-0.9973297119140625,0.1619110107421875
1773251633418559500,1.4335595703125,0.1298828125,-0.993377685546875,0.1734619140625
1773251633428595500,1.443595458984375,0.125762939453125,-0.990692138671875,0.1810760498046875
1773251633438632400,1.453632568359375,0.124481201171875,-0.9912261962890625,0.18292236328125
1773251633448669400,1.46366943359375,0.110595703125,-0.9878692626953125,0.1785888671875
1773251633458706700,1.473706787109375,0.1248016357421875,-0.982879638671875,0.1685333251953125
1773251633468743700,1.48374365234375,0.13427734375,-0.97796630859375,0.1524810791015625
1773251633478780400,1.493780517578125,0.094879150390625,-0.9647674560546875,0.143463134765625
1773251633488817400,1.5038173828125,0.0904083251953125,-0.95758056640625,0.1431427001953125
1773251633498853400,1.513853271484375,0.1104278564453125,-0.95880126953125,0.1452178955078125
1773251633508890600,1.523890625,0.1279754638671875,-0.9575042724609375,0.1524810791015625
1773251633518927600,1.533927734375,0.11834716796875,-0.9619140625,0.161773681640625
1773251633528964600,1.543964599609375,0.1033172607421875,-0.977142333984375,0.16937255859375
1773251633539001600,1.554001708984375,0.106658935546875,-0.9895172119140625,0.1752777099609375
1773251633549038600,1.56403857421875,0.1158447265625,-0.9942169189453125,0.17303466796875
1773251633559075600,1.57407568359375,0.120758056640625,-0.9973602294921875,0.160797119140625
1773251633569111600,1.584111572265625,0.12115478515625,-0.9903106689453125,0.1541290283203125
1773251633579148500,1.5941484375,0.1131591796875,-0.979888916015625,0.1544952392578125
1773251633589185800,1.604185791015625,0.1089935302734375,-0.9762115478515625,0.15704345703125
1773251633599222800,1.614222900390625,0.118927001953125,-0.9718780517578125,0.1633148193359375
1773251633609259500,1.624259521484375,0.1185150146484375,-0.968597412109375,0.16741943359375
1773251633619296500,1.634296630859375,0.1130218505859375,-0.9689178466796875,0.1684417724609375
1773251633629333800,1.644333740234375,0.1117706298828125,-0.9697418212890625,0.170074462890625
1773251633639370800,1.654370849609375,0.112548828125,-0.9731292724609375,0.167572021484375
1773251633649406700,1.66440673828125,0.1104583740234375,-0.9761505126953125,0.167205810546875
1773251633659443700,1.674443603515625,0.1036376953125,-0.9759063720703125,0.1685028076171875
1773251633669480400,1.68448046875,0.10125732421875,-0.9806060791015625,0.1654205322265625
1773251633679517700,1.694517578125,0.10638427734375,-0.98248291015625,0.160186767578125
1773251633689554700,1.7045546875,0.1157684326171875,-0.984466552734375,0.159393310546875
1773251633699591700,1.714591796875,0.11492919921875,-0.9840087890625,0.1618194580078125
1773251633709628700,1.724628662109375,0.1105804443359375,-0.978912353515625,0.164337158203125
1773251633719664600,1.73466455078125,0.116302490234375,-0.9759674072265625,0.1634674072265625
1773251633729701600,1.74470166015625,0.1201171875,-0.9694671630859375,0.1719207763671875
1773251633739738600,1.754738525390625,0.1166534423828125,-0.963653564453125,0.17510986328125
1773251633749775600,1.764775634765625,0.1131134033203125,-0.96197509765625,0.175445556640625
1773251633759812600,1.7748125,0.108245849609375,-0.9670257568359375,0.1704254150390625
1773251633769849600,1.784849609375,0.0982208251953125,-0.9741058349609375,0.1673736572265625
1773251633779886800,1.794886962890625,0.09686279296875,-0.9849700927734375,0.1688232421875
1773251633789922800,1.8049228515625,0.0963592529296875,-0.9882354736328125,0.1639556884765625
1773251633799959600,1.81495947265625,0.1036834716796875,-0.9814605712890625,0.158721923828125
1773251633809996500,1.82499658203125,0.116607666015625,-0.9760894775390625,0.1637115478515625
1773251633820033500,1.835033447265625,0.1175537109375,-0.977813720703125,0.1632080078125
1773251633830070800,1.84507080078125,0.1150970458984375,-0.9853057861328125,0.1651153564453125
1773251633840107800,1.855107666015625,0.116180419921875,-0.9875946044921875,0.1644744873046875
1773251633850144500,1.86514453125,0.1150665283203125,-0.988311767578125,0.1616058349609375
1773251633860181500,1.875181396484375,0.1114349365234375,-0.991302490234375,0.1574859619140625
1773251633870217500,1.885217529296875,0.10711669921875,-0.9928436279296875,0.1572723388671875
1773251633880254700,1.895254638671875,0.1016998291015625,-0.9874725341796875,0.15570068359375
1773251633890291700,1.905291748046875,0.104217529296875,-0.9812164306640625,0.157196044921875
1773251633900328700,1.91532861328125,0.1158447265625,-0.9781494140625,0.160736083984375
1773251633910365700,1.92536572265625,0.1193695068359375,-0.97412109375,0.162811279296875
1773251633920402400,1.93540234375,0.1162872314453125,-0.9738616943359375,0.1639251708984375
1773251633930439700,1.945439697265625,0.1255950927734375,-0.97674560546875,0.16241455078125
1773251633940475600,1.9554755859375,0.1068572998046875,-0.9773101806640625,0.159332275390625
1773251633950512600,1.9655126953125,0.0660247802734375,-0.97552490234375,0.1562652587890625
1773251633960549600,1.975549560546875,0.0974578857421875,-0.975006103515625,0.1588287353515625
1773251633970586600,1.985586669921875,0.149993896484375,-0.979400634765625,0.158538818359375
1773251633980623600,1.99562353515625,0.11444091796875,-0.98077392578125,0.155242919921875
1773251633990660600,2.00566064453125,0.09912109375,-0.9754638671875,0.1645050048828125
1773251634000697600,2.015697509765625,0.110137939453125,-0.9741058349609375,0.1676177978515625
1773251634010733600,2.025733642578125,0.1024017333984375,-0.9740142822265625,0.162139892578125
1773251634020770600,2.0357705078125,0.104248046875,-0.9732818603515625,0.1591949462890625
1773251634030807800,2.045807861328125,0.1175079345703125,-0.978240966796875,0.1566925048828125
1773251634040844800,2.0558447265625,0.125732421875,-0.9806976318359375,0.15386962890625
1773251634050881500,2.065881591796875,0.1187286376953125,-0.9778289794921875,0.1513671875
1773251634060918500,2.07591845703125,0.102783203125,-0.9770355224609375,0.149688720703125
1773251634070955800,2.085955810546875,0.098236083984375,-0.9800567626953125,0.154815673828125
1773251634080992800,2.09599267578125,0.10772705078125,-0.9806060791015625,0.160675048828125
1773251634091028700,2.10602880859375,0.1212005615234375,-0.9785614013671875,0.1617889404296875
1773251634101065700,2.116065673828125,0.1248931884765625,-0.978515625,0.1569976806640625
1773251634111102500,2.1261025390625,0.1098480224609375,-0.981475830078125,0.1555938720703125
1773251634121139500,2.136139404296875,0.0895538330078125,-0.9847259521484375,0.160064697265625
1773251634131176700,2.1461767578125,0.0876312255859375,-0.9864959716796875,0.160675048828125
1773251634141213700,2.156213623046875,0.0958709716796875,-0.987548828125,0.157745361328125
1773251634151250700,2.166250732421875,0.10833740234375,-0.9832000732421875,0.15509033203125
1773251634161286700,2.17628662109375,0.1159820556640625,-0.9774017333984375,0.155487060546875
1773251634171323600,2.18632373046875,0.1154632568359375,-0.9763641357421875,0.1602630615234375
1773251634181360600,2.196360595703125,0.11187744140625,-0.9786376953125,0.16082763671875
1773251634191397600,2.206397705078125,0.1113739013671875,-0.98175048828125,0.1595611572265625
1773251634201434600,2.2164345703125,0.11151123046875,-0.981048583984375,0.1588134765625
1773251634211471600,2.2264716796875,0.1112823486328125,-0.9799957275390625,0.153839111328125
1773251634221508900,2.2365087890625,0.1095733642578125,-0.980010986328125,0.1536712646484375
1773251634231545600,2.246545654296875,0.0973358154296875,-0.9810943603515625,0.1618804931640625
1773251634241581600,2.25658154296875,0.110107421875,-0.9850616455078125,0.168670654296875
1773251634251618600,2.26661865234375,0.118072509765625,-0.98443603515625,0.1657867431640625
1773251634261655600,2.276655517578125,0.0896759033203125,-0.97821044921875,0.1653900146484375
1773251634271692800,2.28669287109375,0.0937957763671875,-0.9758758544921875,0.16888427734375
1773251634281729800,2.296729736328125,0.1071929931640625,-0.9765777587890625,0.1696319580078125
1773251634291766500,2.3067666015625,0.1099090576171875,-0.978240966796875,0.1686553955078125
1773251634301803500,2.316803466796875,0.101287841796875,-0.97998046875,0.168060302734375
1773251634311839500,2.326839599609375,0.10430908203125,-0.9770355224609375,0.164764404296875
1773251634321876500,2.33687646484375,0.1105499267578125,-0.976593017578125,0.1670074462890625
1773251634331913700,2.346913818359375,0.113494873046875,-0.9794921875,0.1689910888671875
1773251634341950700,2.35695068359375,0.116424560546875,-0.978912353515625,0.1710968017578125
1773251634351987700,2.36698779296875,0.1128082275390625,-0.9801483154296875,0.168182373046875
1773251634362024400,2.3770244140625,0.1076812744140625,-0.9806976318359375,0.166412353515625
1773251634372061700,2.387061767578125,0.1054840087890625,-0.974090576171875,0.1674652099609375
1773251634382097700,2.39709765625,0.109954833984375,-0.971282958984375,0.1710662841796875
1773251634392134700,2.407134765625,0.1102447509765625,-0.9754486083984375,0.17156982421875
1773251634402171600,2.417171630859375,0.104736328125,-0.9774627685546875,0.166473388671875
1773251634412208600,2.427208740234375,0.103515625,-0.9820556640625,0.16632080078125
1773251634422245600,2.43724560546875,0.1097869873046875,-0.9885711669921875,0.1711883544921875
1773251634432282600,2.44728271484375,0.113433837890625,-0.9848480224609375,0.1684112548828125
1773251634442319600,2.457319580078125,0.1123046875,-0.979217529296875,0.1674957275390625
1773251634452356600,2.467356689453125,0.1129302978515625,-0.9781341552734375,0.169586181640625
1773251634462392600,2.477392578125,0.114654541015625,-0.978851318359375,0.16949462890625
1773251634472429800,2.487429931640625,0.110992431640625,-0.97845458984375,0.17572021484375
1773251634482466800,2.497466796875,0.1072845458984375,-0.9791259765625,0.1804656982421875
1773251634492503600,2.507503662109375,0.109954833984375,-0.9794464111328125,0.18572998046875
1773251634502540500,2.51754052734375,0.1109466552734375,-0.9792022705078125,0.1864471435546875
1773251634512577500,2.52757763671875,0.1120147705078125,-0.9761810302734375,0.1842803955078125
1773251634522614800,2.53761474609375,0.1159210205078125,-0.97467041015625,0.1860198974609375
1773251634532650800,2.547650634765625,0.1174163818359375,-0.977020263671875,0.188995361328125
1773251634542687700,2.557687744140625,0.1083984375,-0.9786224365234375,0.1929931640625
1773251634552724500,2.567724365234375,0.1009674072265625,-0.9815521240234375,0.1948699951171875
1773251634562761500,2.577761474609375,0.1002197265625,-0.984039306640625,0.1931610107421875
1773251634572798700,2.587798828125,0.10516357421875,-0.983489990234375,0.1878814697265625
1773251634582835700,2.597835693359375,0.1181488037109375,-0.9781494140625,0.18499755859375
1773251634592872700,2.607872802734375,0.126007080078125,-0.9724578857421875,0.181610107421875
1773251634602909400,2.617909423828125,0.121246337890625,-0.9674224853515625,0.1818389892578125
1773251634612945700,2.627945556640625,0.1180419921875,-0.965911865234375,0.1847991943359375
1773251634622982700,2.637982666015625,0.1137237548828125,-0.964630126953125,0.185699462890625
1773251634633019600,2.64801953125,0.1098175048828125,-0.9671478271484375,0.18243408203125
1773251634643056600,2.658056640625,0.105224609375,-0.9675445556640625,0.1751251220703125
1773251634653093600,2.66809375,0.10552978515625,-0.9652099609375,0.1766357421875
1773251634663131000,2.678130859375,0.1058197021484375,-0.9658355712890625,0.1762237548828125
1773251634673167600,2.688167724609375,0.107574462890625,-0.96893310546875,0.17376708984375
1773251634683204600,2.69820458984375,0.110870361328125,-0.9727783203125,0.170928955078125
1773251634693240600,2.708240478515625,0.11016845703125,-0.9782257080078125,0.1673126220703125
1773251634703277600,2.718277587890625,0.11151123046875,-0.9832305908203125,0.1652984619140625
1773251634713314600,2.728314453125,0.116363525390625,-0.9812164306640625,0.166839599609375
1773251634723351800,2.738351806640625,0.116943359375,-0.977294921875,0.169189453125
1773251634733388500,2.748388427734375,0.116546630859375,-0.97607421875,0.16650390625
1773251634743425500,2.758425537109375,0.1179046630859375,-0.9763031005859375,0.1639251708984375
1773251634753462500,2.768462646484375,0.09613037109375,-0.9729461669921875,0.1647186279296875
1773251634763498500,2.77849853515625,0.1062164306640625,-0.97650146484375,0.1706085205078125
1773251634773535700,2.78853564453125,0.1157989501953125,-0.9878387451171875,0.173828125
1773251634783572700,2.79857275390625,0.0951690673828125,-0.9873504638671875,0.1704254150390625
1773251634793609700,2.808609619140625,0.110687255859375,-0.982330322265625,0.1715850830078125
1773251634803646500,2.818646484375,0.1240081787109375,-0.9789276123046875,0.1715850830078125
1773251634813683700,2.82868359375,0.1105499267578125,-0.976898193359375,0.171600341796875
1773251634823720700,2.838720703125,0.104034423828125,-0.97076416015625,0.172271728515625
1773251634833757700,2.8487578125,0.1107025146484375,-0.96563720703125,0.1685943603515625
1773251634843793700,2.858793701171875,0.1184234619140625,-0.9696807861328125,0.1689300537109375
1773251634853830700,2.86883056640625,0.1201019287109375,-0.97528076171875,0.1707000732421875
1773251634863867600,2.87886767578125,0.1077117919921875,-0.9802703857421875,0.17083740234375
1773251634873904600,2.888904541015625,0.094146728515625,-0.9851837158203125,0.17413330078125
1773251634883941600,2.898941650390625,0.098968505859375,-0.9810943603515625,0.1776580810546875
1773251634893978600,2.908978515625,0.1160125732421875,-0.9726409912109375,0.178619384765625
1773251634904015600,2.919015625,0.12396240234375,-0.969451904296875,0.17095947265625
1773251634914052600,2.929052490234375,0.1131591796875,-0.96893310546875,0.16839599609375
1773251634924088800,2.9390888671875,0.0958251953125,-0.973236083984375,0.1716461181640625
1773251634934125600,2.94912548828125,0.09295654296875,-0.9799652099609375,0.1737213134765625
1773251634944162600,2.95916259765625,0.098175048828125,-0.98138427734375,0.1720733642578125
1773251634954199600,2.969199462890625,0.100067138671875,-0.9819793701171875,0.1753082275390625
1773251634964236800,2.97923681640625,0.100860595703125,-0.9799041748046875,0.1784210205078125
1773251634974273800,2.989273681640625,0.1035919189453125,-0.9763641357421875,0.180755615234375
1773251634984310500,2.999310546875,0.108123779296875,-0.9790802001953125,0.182891845703125
1773251634994346500,3.009346435546875,0.1070098876953125,-0.9825286865234375,0.1849822998046875
1773251635004383500,3.019383544921875,0.0997314453125,-0.98138427734375,0.1855621337890625
1773251635014420700,3.029420654296875,0.096527099609375,-0.9792633056640625,0.1822967529296875
1773251635024457700,3.039457763671875,0.0997161865234375,-0.9774627685546875,0.17987060546875
1773251635034494700,3.04949462890625,0.097625732421875,-0.9803466796875,0.178375244140625
1773251635044531500,3.059531494140625,0.0932159423828125,-0.9807586669921875,0.17724609375
1773251635054568400,3.069568359375,0.0870819091796875,-0.9767303466796875,0.180999755859375
1773251635064605700,3.079605712890625,0.1024169921875,-0.9734649658203125,0.1857147216796875
1773251635074641700,3.0896416015625,0.112884521484375,-0.974395751953125,0.180633544921875
1773251635084678700,3.0996787109375,0.086883544921875,-0.9691619873046875,0.1778106689453125
1773251635094715600,3.109715576171875,0.0848541259765625,-0.9696807861328125,0.1790618896484375
1773251635104752600,3.119752685546875,0.102569580078125,-0.972137451171875,0.177337646484375
1773251635114789600,3.12978955078125,0.1145477294921875,-0.9737091064453125,0.1784820556640625
1773251635124826600,3.13982666015625,0.107391357421875,-0.976959228515625,0.181854248046875
1773251635134863600,3.149863525390625,0.099945068359375,-0.97540283203125,0.1829681396484375
1773251635144900600,3.159900634765625,0.1013336181640625,-0.973480224609375,0.1853790283203125
1773251635154936600,3.1699365234375,0.1032867431640625,-0.9764251708984375,0.1849212646484375
1773251635164973800,3.179973876953125,0.102783203125,-0.98052978515625,0.1860198974609375
1773251635175010600,3.190010498046875,0.0980682373046875,-0.98455810546875,0.1891021728515625
1773251635185047600,3.200047607421875,0.0937347412109375,-0.987335205078125,0.186737060546875
1773251635195084500,3.21008447265625,0.09979248046875,-0.9855194091796875,0.1844635009765625
1773251635205121800,3.220121826171875,0.10797119140625,-0.9835205078125,0.1840362548828125
1773251635215158800,3.23015869140625,0.1078338623046875,-0.9820709228515625,0.186920166015625
1773251635225194800,3.24019482421875,0.1015625,-0.9774322509765625,0.187744140625
1773251635235231700,3.250231689453125,0.0975341796875,-0.97479248046875,0.19036865234375
1773251635245268500,3.2602685546875,0.098114013671875,-0.97686767578125,0.18988037109375
1773251635255305500,3.270305419921875,0.0970458984375,-0.9804840087890625,0.1871185302734375
1773251635265342700,3.2803427734375,0.096710205078125,-0.9797210693359375,0.187957763671875
1773251635275379700,3.290379638671875,0.0962371826171875,-0.9770050048828125,0.1862030029296875
1773251635285416700,3.300416748046875,0.0995941162109375,-0.9727630615234375,0.18365478515625
1773251635295453400,3.310453369140625,0.1024322509765625,-0.970611572265625,0.1829681396484375
1773251635305489700,3.32048974609375,0.10357666015625,-0.968841552734375,0.1849822998046875
1773251635315526700,3.330526611328125,0.1026611328125,-0.9707183837890625,0.1869964599609375
1773251635325563600,3.340563720703125,0.10076904296875,-0.9780731201171875,0.1874542236328125
1773251635335600600,3.3506005859375,0.0996551513671875,-0.9805145263671875,0.1858367919921875
1773251635345637600,3.3606376953125,0.095916748046875,-0.976898193359375,0.18206787109375
1773251635355674600,3.370674560546875,0.1001739501953125,-0.9756927490234375,0.1807098388671875
1773251635365711600,3.380711669921875,0.1022491455078125,-0.9759979248046875,0.180572509765625
1773251635375748600,3.39074853515625,0.096466064453125,-0.9784698486328125,0.17840576171875
1773251635385784600,3.40078466796875,0.093597412109375,-0.98077392578125,0.1811065673828125
1773251635395821600,3.410821533203125,0.099456787109375,-0.98138427734375,0.1845550537109375
1773251635405858800,3.42085888671875,0.101898193359375,-0.983917236328125,0.185943603515625
1773251635415895800,3.430895751953125,0.10333251953125,-0.986663818359375,0.1853179931640625
1773251635425932500,3.4409326171875,0.10870361328125,-0.985626220703125,0.1851348876953125
1773251635435969500,3.450969482421875,0.1083831787109375,-0.98358154296875,0.1837921142578125
1773251635446006500,3.461006591796875,0.10205078125,-0.979095458984375,0.18109130859375
1773251635456043800,3.471043701171875,0.0956573486328125,-0.9764862060546875,0.177734375
1773251635466079700,3.481079833984375,0.0972442626953125,-0.96893310546875,0.1810760498046875
1773251635476116700,3.49111669921875,0.0973663330078125,-0.96771240234375,0.1854248046875
1773251635486153700,3.50115380859375,0.094573974609375,-0.969696044921875,0.1850128173828125
1773251635496190500,3.5111904296875,0.0966033935546875,-0.9698333740234375,0.1858367919921875
1773251635506227700,3.521227783203125,0.1013641357421875,-0.97113037109375,0.188751220703125
1773251635516264700,3.5312646484375,0.102508544921875,-0.975067138671875,0.1940765380859375
1773251635526301700,3.5413017578125,0.10382080078125,-0.9824371337890625,0.188812255859375
1773251635536337700,3.551337646484375,0.1025390625,-0.981170654296875,0.1820220947265625
1773251635546375000,3.561375,0.1073760986328125,-0.9765777587890625,0.178558349609375
1773251635556411600,3.57141162109375,0.1141815185546875,-0.9745941162109375,0.1774139404296875
1773251635566448600,3.58144873046875,0.1110382080078125,-0.9729156494140625,0.1812286376953125
1773251635576486000,3.59148583984375,0.1142578125,-0.97076416015625,0.18463134765625
1773251635586523000,3.60152294921875,0.095001220703125,-0.97125244140625,0.1851806640625
1773251635596560000,3.611559814453125,0.0804443359375,-0.972900390625,0.187713623046875
1773251635606596600,3.6215966796875,0.1001434326171875,-0.9759674072265625,0.189208984375
1773251635616632600,3.631632568359375,0.1006622314453125,-0.97711181640625,0.1840667724609375
1773251635626669800,3.641669921875,0.100555419921875,-0.972808837890625,0.18109130859375
1773251635636706800,3.651706787109375,0.1212615966796875,-0.9710540771484375,0.178619384765625
1773251635646743800,3.661743896484375,0.1286163330078125,-0.9742584228515625,0.1765594482421875
1773251635656780800,3.67178076171875,0.103118896484375,-0.9724884033203125,0.1810760498046875
1773251635666817800,3.68181787109375,0.0991363525390625,-0.9713592529296875,0.187530517578125
1773251635676854800,3.691854736328125,0.123199462890625,-0.9772186279296875,0.1897735595703125
1773251635686891800,3.701891845703125,0.1363067626953125,-0.9801025390625,0.1919097900390625
1773251635696927700,3.711927734375,0.1225738525390625,-0.9805145263671875,0.19140625
1773251635706964700,3.72196484375,0.102020263671875,-0.9790802001953125,0.185577392578125
1773251635717001700,3.732001708984375,0.10687255859375,-0.9827117919921875,0.180694580078125
1773251635727039000,3.7420390625,0.120513916015625,-0.983642578125,0.1807861328125
1773251635737075700,3.75207568359375,0.1230621337890625,-0.9771575927734375,0.1828765869140625
1773251635747112700,3.76211279296875,0.120635986328125,-0.971649169921875,0.181976318359375
1773251635757149700,3.772149658203125,0.10992431640625,-0.9679718017578125,0.182037353515625
1773251635767187000,3.78218701171875,0.1044769287109375,-0.970733642578125,0.1849517822265625
1773251635777223000,3.792222900390625,0.111083984375,-0.9720916748046875,0.1837005615234375
1773251635787260000,3.802260009765625,0.1148681640625,-0.9714508056640625,0.1810760498046875
1773251635797296600,3.812296630859375,0.116241455078125,-0.9736328125,0.1799774169921875
1773251635807333600,3.822333740234375,0.1177520751953125,-0.9746246337890625,0.1779632568359375
1773251635817370600,3.83237060546875,0.1170806884765625,-0.975372314453125,0.176055908203125
1773251635827408000,3.842407958984375,0.11944580078125,-0.97705078125,0.1758270263671875
1773251635837444900,3.85244482421875,0.1188201904296875,-0.978912353515625,0.180206298828125
1773251635847481600,3.862481689453125,0.115875244140625,-0.9793243408203125,0.1836395263671875
1773251635857517800,3.872517822265625,0.1204376220703125,-0.9785308837890625,0.1846466064453125
1773251635867554600,3.882554443359375,0.124481201171875,-0.9771270751953125,0.18096923828125
1773251635877591800,3.892591796875,0.11822509765625,-0.9735870361328125,0.17657470703125
1773251635887628800,3.90262890625,0.1047515869140625,-0.972625732421875,0.17388916015625
1773251635897665800,3.912665771484375,0.118927001953125,-0.9758453369140625,0.1756591796875
1773251635907702800,3.922702880859375,0.1332550048828125,-0.9746246337890625,0.1737823486328125
1773251635917739800,3.93273974609375,0.1134796142578125,-0.970977783203125,0.1771087646484375
1773251635927776800,3.94277685546875,0.1163330078125,-0.9707183837890625,0.1749420166015625
1773251635937812700,3.952812744140625,0.1206817626953125,-0.9723052978515625,0.174072265625
1773251635947849700,3.962849609375,0.12823486328125,-0.97637939453125,0.173980712890625
1773251635957886700,3.97288671875,0.1309661865234375,-0.9757537841796875,0.1760711669921875
1773251635967924000,3.982924072265625,0.13018798828125,-0.9759674072265625,0.1777496337890625
1773251635977960700,3.992960693359375,0.133270263671875,-0.97821044921875,0.17840576171875
1773251635987997700,4.002997802734375,0.1377410888671875,-0.974853515625,0.17376708984375
1773251635998034700,4.01303466796875,0.1376953125,-0.9718475341796875,0.1704254150390625
1773251636008071700,4.02307177734375,0.1337890625,-0.9683380126953125,0.1672515869140625
1773251636018107600,4.033107666015625,0.1321868896484375,-0.9680328369140625,0.1614227294921875
1773251636028145000,4.043144775390625,0.133697509765625,-0.967559814453125,0.1576080322265625
1773251636038182000,4.053181884765625,0.1310272216796875,-0.9722442626953125,0.156097412109375
1773251636048218600,4.063218505859375,0.125335693359375,-0.9754638671875,0.156585693359375
1773251636058255600,4.073255615234375,0.12579345703125,-0.978546142578125,0.162261962890625
1773251636068292900,4.08329296875,0.129241943359375,-0.9778900146484375,0.167205810546875
1773251636078329900,4.093329833984375,0.132598876953125,-0.9786529541015625,0.16650390625
1773251636088366800,4.103366943359375,0.1295166015625,-0.9810333251953125,0.15966796875
1773251636098402800,4.11340283203125,0.1300811767578125,-0.97900390625,0.1538543701171875
1773251636108439800,4.123439697265625,0.1341552734375,-0.9752655029296875,0.1558837890625
1773251636118476800,4.133476806640625,0.1334991455078125,-0.9722747802734375,0.1601409912109375
1773251636128513800,4.143513671875,0.134033203125,-0.9702911376953125,0.15997314453125
1773251636138550800,4.15355078125,0.1343231201171875,-0.970123291015625,0.1644134521484375
1773251636148587800,4.163587890625,0.1342620849609375,-0.9691314697265625,0.17266845703125
1773251636158624800,4.173624755859375,0.1332550048828125,-0.9659271240234375,0.175445556640625
1773251636168661800,4.183661865234375,0.1322479248046875,-0.96636962890625,0.1738128662109375
1773251636178697700,4.19369775390625,0.130645751953125,-0.9698944091796875,0.1687774658203125
1773251636188734700,4.203734619140625,0.13067626953125,-0.9745941162109375,0.160491943359375
1773251636198771700,4.213771728515625,0.1350860595703125,-0.973297119140625,0.1587371826171875
1773251636208808700,4.22380859375,0.139190673828125,-0.972900390625,0.1595306396484375
1773251636218846000,4.233845947265625,0.14056396484375,-0.9740142822265625,0.160003662109375
1773251636228882700,4.243882568359375,0.1384735107421875,-0.976409912109375,0.1620941162109375
1773251636238919700,4.253919677734375,0.1348114013671875,-0.9744873046875,0.1622772216796875
1773251636248956700,4.263956787109375,0.1309356689453125,-0.972137451171875,0.1652374267578125
1773251636258992600,4.27399267578125,0.1303253173828125,-0.974639892578125,0.164398193359375
1773251636269030000,4.28402978515625,0.1340789794921875,-0.972686767578125,0.1617431640625
1773251636279067000,4.29406689453125,0.133056640625,-0.97467041015625,0.1613616943359375
1773251636289104000,4.304103759765625,0.126190185546875,-0.979400634765625,0.159637451171875
1773251636299140600,4.314140625,0.1241607666015625,-0.982574462890625,0.1573028564453125
1773251636309177900,4.324177734375,0.12701416015625,-0.9832611083984375,0.1531219482421875
1773251636319214800,4.33421484375,0.1297454833984375,-0.980682373046875,0.149566650390625
1773251636329251800,4.344251953125,0.1282501220703125,-0.9766387939453125,0.1533355712890625
1773251636339287800,4.354287841796875,0.126708984375,-0.9751739501953125,0.1539459228515625
1773251636349324800,4.36432470703125,0.1272125244140625,-0.977752685546875,0.1526031494140625
1773251636359361800,4.37436181640625,0.128143310546875,-0.98297119140625,0.152313232421875
1773251636369398800,4.384398681640625,0.126922607421875,-0.9815673828125,0.1529693603515625
1773251636379435800,4.394435791015625,0.1345367431640625,-0.9830169677734375,0.153961181640625
1773251636389472800,4.40447265625,0.138702392578125,-0.9837188720703125,0.15594482421875
1773251636399509800,4.414509765625,0.142852783203125,-0.982208251953125,0.1567230224609375
1773251636409546800,4.424546630859375,0.1473846435546875,-0.981231689453125,0.1551666259765625
1773251636419582700,4.434582763671875,0.117828369140625,-0.978485107421875,0.15509033203125
1773251636429619700,4.44461962890625,0.0888824462890625,-0.9759674072265625,0.15533447265625
1773251636439656700,4.45465673828125,0.10626220703125,-0.9789276123046875,0.1571044921875
1773251636449693700,4.464693603515625,0.1319580078125,-0.9866943359375,0.1558074951171875
1773251636459731000,4.47473095703125,0.1030120849609375,-0.9860076904296875,0.157012939453125
1773251636469768000,4.484767822265625,0.1067657470703125,-0.9830474853515625,0.161224365234375
1773251636479804700,4.4948046875,0.1175994873046875,-0.9791259765625,0.1610565185546875
1773251636489841700,4.504841552734375,0.114410400390625,-0.9712982177734375,0.1643829345703125
1773251636499877600,4.514877685546875,0.115447998046875,-0.9666290283203125,0.1671142578125
1773251636509915000,4.524914794921875,0.124603271484375,-0.9690399169921875,0.162841796875
1773251636519952000,4.534951904296875,0.131744384765625,-0.9727783203125,0.159942626953125
1773251636529988900,4.54498876953125,0.1212615966796875,-0.9747314453125,0.1606903076171875
1773251636540025900,4.55502587890625,0.1059112548828125,-0.978424072265625,0.1654205322265625
1773251636550063000,4.56506298828125,0.106292724609375,-0.97900390625,0.1684112548828125
1773251636560100000,4.57510009765625,0.11737060546875,-0.9787750244140625,0.1669158935546875
1773251636570137000,4.58513720703125,0.119873046875,-0.9786376953125,0.1624908447265625
1773251636580174000,4.595174072265625,0.1135101318359375,-0.9770965576171875,0.15643310546875
1773251636590210000,4.6052099609375,0.1021728515625,-0.976776123046875,0.15570068359375
1773251636600246800,4.615246826171875,0.0947418212890625,-0.9775543212890625,0.15728759765625
1773251636610284000,4.625283935546875,0.0987091064453125,-0.9783782958984375,0.1602630615234375
1773251636620321000,4.635321044921875,0.10772705078125,-0.9794921875,0.16143798828125
1773251636630358000,4.64535791015625,0.1118927001953125,-0.9827117919921875,0.162933349609375
1773251636640395000,4.65539501953125,0.11163330078125,-0.9844207763671875,0.1637420654296875
1773251636650432000,4.665431884765625,0.111663818359375,-0.9851531982421875,0.165252685546875
1773251636660469000,4.675468994140625,0.11260986328125,-0.986328125,0.1649169921875
1773251636670505000,4.6855048828125,0.1089324951171875,-0.9854736328125,0.161895751953125
1773251636680542000,4.6955419921875,0.10662841796875,-0.9832305908203125,0.1553955078125
1773251636690579000,4.705578857421875,0.1085052490234375,-0.97869873046875,0.156463623046875
1773251636700616200,4.7156162109375,0.1135406494140625,-0.9809112548828125,0.1570587158203125
1773251636710653200,4.725653076171875,0.11419677734375,-0.9827728271484375,0.1605072021484375
1773251636720690000,4.73568994140625,0.1033477783203125,-0.98260498046875,0.1627960205078125
1773251636730727000,4.745726806640625,0.1201934814453125,-0.9837188720703125,0.1659698486328125
1773251636740764000,4.755763916015625,0.1128082275390625,-0.983917236328125,0.1656036376953125
1773251636750800100,4.765800048828125,0.091094970703125,-0.9803466796875,0.1601409912109375
1773251636760837000,4.775837158203125,0.09832763671875,-0.9766998291015625,0.1574859619140625
1773251636770874000,4.7858740234375,0.106842041015625,-0.97113037109375,0.157867431640625
1773251636780910800,4.795910888671875,0.1135711669921875,-0.967864990234375,0.159637451171875
1773251636790947800,4.80594775390625,0.1130523681640625,-0.97467041015625,0.162689208984375
1773251636800985000,4.815985107421875,0.1105804443359375,-0.9773712158203125,0.16436767578125
1773251636811022000,4.82602197265625,0.1098785400390625,-0.9791259765625,0.165771484375
1773251636821059000,4.83605908203125,0.1107177734375,-0.977508544921875,0.16766357421875
1773251636831095000,4.846094970703125,0.10748291015625,-0.9745941162109375,0.1662750244140625
1773251636841132000,4.856132080078125,0.10284423828125,-0.9754638671875,0.163726806640625
1773251636851169000,4.8661689453125,0.1068267822265625,-0.97991943359375,0.1574554443359375
1773251636861206000,4.8762060546875,0.11016845703125,-0.98193359375,0.1562042236328125
1773251636871243000,4.886242919921875,0.10919189453125,-0.981597900390625,0.1595001220703125
1773251636881280000,4.896280029296875,0.1117401123046875,-0.9797210693359375,0.1627197265625
1773251636891317200,4.906317138671875,0.1116943359375,-0.9799652099609375,0.1676483154296875
1773251636901354000,4.91635400390625,0.10601806640625,-0.97894287109375,0.1709442138671875
1773251636911391000,4.926390869140625,0.1042633056640625,-0.9819183349609375,0.173583984375
1773251636921427000,4.936427001953125,0.10394287109375,-0.9819183349609375,0.171051025390625
1773251636931464000,4.9464638671875,0.1083221435546875,-0.9793243408203125,0.170196533203125
1773251636941501000,4.9565009765625,0.1156158447265625,-0.974639892578125,0.17156982421875
1773251636951538200,4.9665380859375,0.114532470703125,-0.9736328125,0.1714324951171875
1773251636961575000,4.976574951171875,0.1085662841796875,-0.978240966796875,0.1727142333984375
1773251636971612000,4.98661181640625,0.104278564453125,-0.97821044921875,0.1732330322265625
1773251636981649000,4.99664892578125,0.1055145263671875,-0.97723388671875,0.17694091796875
1773251636991686100,5.00668603515625,0.1053314208984375,-0.975616455078125,0.17852783203125
1773251637001722000,5.01672216796875,0.1038360595703125,-0.976470947265625,0.176483154296875
1773251637011759000,5.026759033203125,0.10693359375,-0.9781951904296875,0.1768341064453125
1773251637021796000,5.036796142578125,0.1113739013671875,-0.9795379638671875,0.1779937744140625
1773251637031832800,5.046832763671875,0.1107635498046875,-0.9788970947265625,0.179107666015625
1773251637041870000,5.0568701171875,0.1128082275390625,-0.9774627685546875,0.181640625
1773251637051907000,5.066906982421875,0.1152801513671875,-0.9772796630859375,0.18499755859375
1773251637061944000,5.076944091796875,0.1140594482421875,-0.9738311767578125,0.1855926513671875
1773251637071981000,5.08698095703125,0.1126251220703125,-0.9740753173828125,0.1845703125
1773251637082017000,5.09701708984375,0.110443115234375,-0.979705810546875,0.1785736083984375
1773251637092054000,5.107053955078125,0.108154296875,-0.978668212890625,0.1731719970703125
1773251637102091000,5.117091064453125,0.10955810546875,-0.9735565185546875,0.1738128662109375
1773251637112128000,5.1271279296875,0.1114654541015625,-0.9731597900390625,0.1731719970703125
1773251637122165000,5.1371650390625,0.110565185546875,-0.9750213623046875,0.173187255859375
1773251637132202000,5.147201904296875,0.110595703125,-0.9748687744140625,0.17681884765625
1773251637142239000,5.157239013671875,0.1124420166015625,-0.9755401611328125,0.180267333984375
1773251637152276000,5.16727587890625,0.1114959716796875,-0.9751434326171875,0.1830596923828125
1773251637162313000,5.17731298828125,0.1106719970703125,-0.9780426025390625,0.18310546875
1773251637172349000,5.187348876953125,0.111724853515625,-0.979644775390625,0.1807708740234375
1773251637182386000,5.197385986328125,0.1151275634765625,-0.9788055419921875,0.1771087646484375
1773251637192423200,5.207423095703125,0.1154022216796875,-0.9751434326171875,0.1734466552734375
1773251637202460200,5.217460205078125,0.115478515625,-0.9749603271484375,0.1739349365234375
1773251637212497000,5.227496826171875,0.11517333984375,-0.97711181640625,0.1753082275390625
1773251637222534000,5.237533935546875,0.11175537109375,-0.97772216796875,0.178375244140625
1773251637232571100,5.247571044921875,0.1103668212890625,-0.97882080078125,0.1810150146484375
1773251637242608000,5.257608154296875,0.1136627197265625,-0.9800262451171875,0.1812591552734375
1773251637252644000,5.26764404296875,0.1104888916015625,-0.9796142578125,0.180511474609375
1773251637262681000,5.27768115234375,0.11053466796875,-0.979888916015625,0.1816558837890625
1773251637272718000,5.287718017578125,0.1130218505859375,-0.9767608642578125,0.1809539794921875
1773251637282755000,5.297755126953125,0.1132965087890625,-0.9760894775390625,0.18133544921875
1773251637292792000,5.3077919921875,0.116912841796875,-0.975830078125,0.1798248291015625
1773251637302829000,5.3178291015625,0.1204833984375,-0.97650146484375,0.177459716796875
1773251637312866000,5.327865966796875,0.0976104736328125,-0.9777374267578125,0.1781158447265625
1773251637322903000,5.337903076171875,0.109161376953125,-0.98004150390625,0.1788787841796875
1773251637332940000,5.34793994140625,0.110443115234375,-0.9805145263671875,0.176239013671875
1773251637342976000,5.35797607421875,0.0926055908203125,-0.974884033203125,0.1760711669921875
1773251637353013000,5.368012939453125,0.115386962890625,-0.9699859619140625,0.178375244140625
1773251637363050000,5.378050048828125,0.1270294189453125,-0.966217041015625,0.1790618896484375
1773251637373087000,5.3880869140625,0.109344482421875,-0.964935302734375,0.1833343505859375
1773251637383124200,5.398124267578125,0.0992431640625,-0.9639892578125,0.1860504150390625
1773251637393161000,5.408160888671875,0.109954833984375,-0.9664459228515625,0.18377685546875
1773251637403198000,5.418197998046875,0.1196136474609375,-0.977294921875,0.1803741455078125
1773251637413235000,5.42823486328125,0.120147705078125,-0.980865478515625,0.177276611328125
1773251637423271000,5.43827099609375,0.104888916015625,-0.9821319580078125,0.1778564453125
1773251637433308200,5.44830810546875,0.0963287353515625,-0.9846343994140625,0.1787261962890625
1773251637443345200,5.45834521484375,0.1061553955078125,-0.9859466552734375,0.1779327392578125
1773251637453382000,5.4683818359375,0.118408203125,-0.98004150390625,0.18035888671875
1773251637463419000,5.4784189453125,0.1191864013671875,-0.9725341796875,0.18402099609375
1773251637473455900,5.488455810546875,0.1100921630859375,-0.9738006591796875,0.18212890625
1773251637483493000,5.4984931640625,0.1003570556640625,-0.977264404296875,0.180877685546875
1773251637493530000,5.508530029296875,0.099853515625,-0.979248046875,0.1815643310546875
1773251637503566000,5.518566162109375,0.104644775390625,-0.979736328125,0.182891845703125
1773251637513603000,5.52860302734375,0.1065673828125,-0.9799957275390625,0.1855010986328125
1773251637523639800,5.538639892578125,0.1057281494140625,-0.978363037109375,0.1847991943359375
1773251637533677000,5.548677001953125,0.106842041015625,-0.9760284423828125,0.18328857421875
1773251637543714000,5.558714111328125,0.107177734375,-0.9762115478515625,0.1838531494140625
1773251637553751300,5.568751220703125,0.105255126953125,-0.977447509765625,0.1804351806640625
1773251637563788300,5.578788330078125,0.10528564453125,-0.97760009765625,0.180328369140625
1773251637573825000,5.588824951171875,0.106201171875,-0.97625732421875,0.1829986572265625
1773251637583862000,5.598862060546875,0.10565185546875,-0.9764556884765625,0.1839599609375
1773251637593898000,5.60889794921875,0.1078948974609375,-0.9768829345703125,0.185455322265625
1773251637603935200,5.618935302734375,0.1156463623046875,-0.980621337890625,0.1869659423828125
1773251637613972200,5.62897216796875,0.103424072265625,-0.9822845458984375,0.1851654052734375
1773251637624009200,5.63900927734375,0.09356689453125,-0.98028564453125,0.1846771240234375
1773251637634046000,5.6490458984375,0.110931396484375,-0.9812164306640625,0.1837921142578125
1773251637644083200,5.659083251953125,0.09381103515625,-0.9753570556640625,0.1830902099609375
1773251637654120200,5.6691201171875,0.0842132568359375,-0.97003173828125,0.1833648681640625
1773251637664157200,5.6791572265625,0.103790283203125,-0.9686737060546875,0.1843719482421875
1773251637674194200,5.689194091796875,0.117034912109375,-0.9719390869140625,0.1828765869140625
1773251637684230100,5.699230224609375,0.1106109619140625,-0.9769287109375,0.18170166015625
1773251637694267100,5.70926708984375,0.101348876953125,-0.9804229736328125,0.1825408935546875
1773251637704304000,5.71930419921875,0.1077728271484375,-0.9814605712890625,0.1854400634765625
1773251637714341000,5.729341064453125,0.11529541015625,-0.9800567626953125,0.1860198974609375
1773251637724378000,5.739378173828125,0.115234375,-0.979339599609375,0.1828460693359375
1773251637734415000,5.7494150390625,0.106658935546875,-0.977935791015625,0.183380126953125
1773251637744452400,5.759452392578125,0.1044921875,-0.9771881103515625,0.1822052001953125
1773251637754489000,5.769489013671875,0.1065673828125,-0.97509765625,0.18133544921875
1773251637764525000,5.779525146484375,0.107818603515625,-0.97332763671875,0.179168701171875
1773251637774562000,5.78956201171875,0.1107635498046875,-0.9747772216796875,0.179931640625
1773251637784599000,5.79959912109375,0.1063079833984375,-0.974517822265625,0.182373046875
1773251637794636300,5.80963623046875,0.1049041748046875,-0.9731292724609375,0.1829376220703125
1773251637804673300,5.81967333984375,0.1104583740234375,-0.9731292724609375,0.1851348876953125
1773251637814710000,5.8297099609375,0.1115875244140625,-0.9757080078125,0.186767578125
1773251637824747000,5.8397470703125,0.10870361328125,-0.9792327880859375,0.1846466064453125
1773251637834784000,5.849783935546875,0.11102294921875,-0.9797821044921875,0.1845245361328125
1773251637844821200,5.8598212890625,0.1121368408203125,-0.9796600341796875,0.184661865234375
1773251637854857200,5.869857177734375,0.1121673583984375,-0.981201171875,0.18023681640625
1773251637864894200,5.879894287109375,0.114715576171875,-0.9776611328125,0.175750732421875
1773251637874931200,5.88993115234375,0.1215362548828125,-0.973663330078125,0.177001953125
1773251637884968000,5.899968017578125,0.1241455078125,-0.9718780517578125,0.1807098388671875
1773251637895005200,5.910005126953125,0.12060546875,-0.9718475341796875,0.1798858642578125
1773251637905042200,5.920042236328125,0.1206207275390625,-0.9711456298828125,0.1800384521484375
1773251637915079200,5.9300791015625,0.1212310791015625,-0.9740753173828125,0.1814727783203125
1773251637925116200,5.9401162109375,0.1198272705078125,-0.9760894775390625,0.182952880859375
1773251637935152000,5.950152099609375,0.1200714111328125,-0.97955322265625,0.1794281005859375
1773251637945189000,5.960189208984375,0.122772216796875,-0.9769287109375,0.176666259765625
1773251637955226000,5.97022607421875,0.12432861328125,-0.9772491455078125,0.17633056640625
1773251637965263000,5.98026318359375,0.1281890869140625,-0.9753570556640625,0.1768646240234375
1773251637975300000,5.990300048828125,0.126556396484375,-0.9770355224609375,0.1745452880859375
1773251637985337300,6.00033740234375,0.1278228759765625,-0.9720458984375,0.173675537109375
1773251637995374000,6.0103740234375,0.1337890625,-0.9715118408203125,0.175079345703125
1773251638005411000,6.0204111328125,0.134857177734375,-0.9741058349609375,0.1752166748046875
1773251638015448000,6.030447998046875,0.1303558349609375,-0.9713897705078125,0.1745452880859375
1773251638025484000,6.040484130859375,0.1275787353515625,-0.9699859619140625,0.176544189453125
1773251638035521000,6.05052099609375,0.1302947998046875,-0.9732818603515625,0.1738433837890625
1773251638045558300,6.060558349609375,0.1331329345703125,-0.975616455078125,0.173919677734375
1773251638055595300,6.07059521484375,0.1369476318359375,-0.97613525390625,0.1747589111328125
1773251638065632000,6.080632080078125,0.141265869140625,-0.973724365234375,0.173553466796875
1773251638075669000,6.0906689453125,0.1448211669921875,-0.9722747802734375,0.1723175048828125
1773251638085706200,6.100706298828125,0.1446533203125,-0.9737396240234375,0.1693572998046875
1773251638095743200,6.1107431640625,0.1436920166015625,-0.9726409912109375,0.1705780029296875
1773251638105780200,6.1207802734375,0.14300537109375,-0.972991943359375,0.1731414794921875
1773251638115816200,6.130816162109375,0.140533447265625,-0.9741668701171875,0.17315673828125
1773251638125853200,6.140853271484375,0.1365966796875,-0.9711151123046875,0.1750640869140625
1773251638135890200,6.15089013671875,0.1356048583984375,-0.9695892333984375,0.17840576171875
1773251638145927200,6.16092724609375,0.139739990234375,-0.9697113037109375,0.1758575439453125
1773251638155964200,6.170964111328125,0.1429595947265625,-0.9695281982421875,0.1762542724609375
1773251638166001200,6.181001220703125,0.1505279541015625,-0.970123291015625,0.17437744140625
1773251638176038100,6.1910380859375,0.1546478271484375,-0.970672607421875,0.17095947265625
1773251638186075100,6.2010751953125,0.1497802734375,-0.9714813232421875,0.168975830078125
1773251638196112100,6.211112060546875,0.14788818359375,-0.969696044921875,0.1662445068359375
1773251638206148000,6.221148193359375,0.150665283203125,-0.965789794921875,0.1676483154296875
1773251638216185000,6.23118505859375,0.1537322998046875,-0.9654083251953125,0.1676483154296875
1773251638226222000,6.24122216796875,0.161529541015625,-0.967803955078125,0.1635284423828125
1773251638236259300,6.25125927734375,0.17181396484375,-0.969207763671875,0.162139892578125
1773251638246296000,6.261296142578125,0.1747589111328125,-0.9711456298828125,0.16534423828125
1773251638256333000,6.2713330078125,0.13714599609375,-0.9721832275390625,0.165435791015625
1773251638266370000,6.2813701171875,0.1352386474609375,-0.973052978515625,0.164031982421875
1773251638276407300,6.2914072265625,0.1646881103515625,-0.973388671875,0.1634368896484375
1773251638286443300,6.301443359375,0.1747589111328125,-0.9729156494140625,0.1650238037109375
1773251638296480300,6.311480224609375,0.1613922119140625,-0.9683380126953125,0.16351318359375
1773251638306517200,6.321517333984375,0.161407470703125,-0.968780517578125,0.16015625
1773251638316554000,6.331553955078125,0.149627685546875,-0.9662017822265625,0.1633758544921875
1773251638326591200,6.34159130859375,0.1462860107421875,-0.964324951171875,0.166534423828125
1773251638336628200,6.351628173828125,0.16387939453125,-0.966339111328125,0.1648406982421875
1773251638346665200,6.361665283203125,0.1743011474609375,-0.969329833984375,0.1628875732421875
1773251638356702200,6.3717021484375,0.171142578125,-0.970703125,0.1665802001953125
1773251638366739000,6.381739013671875,0.152130126953125,-0.97161865234375,0.1652984619140625
1773251638376775000,6.39177490234375,0.1403656005859375,-0.9672088623046875,0.1640167236328125
1773251638386812200,6.401812255859375,0.153411865234375,-0.9657440185546875,0.16473388671875
1773251638396849200,6.41184912109375,0.16082763671875,-0.96343994140625,0.1660919189453125
1773251638406886100,6.42188623046875,0.1568756103515625,-0.961761474609375,0.1633148193359375
1773251638416923100,6.431923095703125,0.1494140625,-0.961090087890625,0.1627197265625
1773251638426960100,6.441960205078125,0.14105224609375,-0.960052490234375,0.165740966796875
1773251638436997000,6.4519970703125,0.140899658203125,-0.9635467529296875,0.167266845703125
1773251638447034000,6.4620341796875,0.1487274169921875,-0.9705963134765625,0.1641693115234375
1773251638457071000,6.472071044921875,0.1543121337890625,-0.971282958984375,0.1673583984375
1773251638467107000,6.482107177734375,0.15338134765625,-0.97296142578125,0.1715545654296875
1773251638477144300,6.492144287109375,0.14910888671875,-0.974853515625,0.16790771484375
1773251638487181300,6.502181396484375,0.1479949951171875,-0.9795379638671875,0.1657867431640625
1773251638497218000,6.512218017578125,0.1464691162109375,-0.978363037109375,0.1627655029296875
1773251638507255000,6.522255126953125,0.1471099853515625,-0.97637939453125,0.16717529296875
1773251638517292300,6.532292236328125,0.1484222412109375,-0.972930908203125,0.16998291015625
1773251638527329300,6.542329345703125,0.1495361328125,-0.972198486328125,0.165374755859375
1773251638537366300,6.5523662109375,0.151336669921875,-0.9720306396484375,0.163848876953125
1773251638547403000,6.562403076171875,0.1437835693359375,-0.973297119140625,0.165435791015625
1773251638557439000,6.57243896484375,0.1279754638671875,-0.977081298828125,0.1626739501953125
1773251638567476200,6.582476318359375,0.1539154052734375,-0.982879638671875,0.161468505859375
1773251638577513200,6.59251318359375,0.149322509765625,-0.9844512939453125,0.16107177734375
1773251638587550200,6.60255029296875,0.12359619140625,-0.9797210693359375,0.1670379638671875
1773251638597587200,6.612587158203125,0.132537841796875,-0.9754791259765625,0.1695404052734375
1773251638607624200,6.622624267578125,0.1426544189453125,-0.9752044677734375,0.16864013671875
1773251638617661200,6.6326611328125,0.14251708984375,-0.9760894775390625,0.1654205322265625
1773251638627698200,6.6426982421875,0.1418609619140625,-0.978057861328125,0.1667938232421875
1773251638637735200,6.652735107421875,0.142669677734375,-0.9783782958984375,0.165740966796875
1773251638647771100,6.662771240234375,0.1417236328125,-0.97265625,0.167236328125
1773251638657808400,6.672808349609375,0.1417694091796875,-0.9719085693359375,0.16888427734375
1773251638667845400,6.682845458984375,0.1378173828125,-0.9727935791015625,0.1690826416015625
1773251638677882000,6.692882080078125,0.1298980712890625,-0.969573974609375,0.170257568359375
1773251638687919000,6.702919189453125,0.1258544921875,-0.9686431884765625,0.170867919921875
1773251638697956000,6.7129560546875,0.12884521484375,-0.971588134765625,0.16778564453125
1773251638707993300,6.722993408203125,0.12847900390625,-0.9746551513671875,0.16485595703125
1773251638718030300,6.7330302734375,0.1301422119140625,-0.9769287109375,0.162872314453125
1773251638728067000,6.743067138671875,0.132568359375,-0.9803314208984375,0.1624908447265625
1773251638738103000,6.75310302734375,0.1355743408203125,-0.98101806640625,0.161712646484375
1773251638748140000,6.76314013671875,0.134735107421875,-0.97515869140625,0.1622314453125
1773251638758177300,6.77317724609375,0.1339874267578125,-0.97314453125,0.167755126953125
1773251638768214300,6.78321435546875,0.13323974609375,-0.97271728515625,0.174163818359375
1773251638778251300,6.793251220703125,0.1309661865234375,-0.97308349609375,0.177490234375
1773251638788288000,6.8032880859375,0.124847412109375,-0.9783477783203125,0.1754302978515625
1773251638798325200,6.8133251953125,0.1192779541015625,-0.983489990234375,0.1714019775390625
1773251638808362200,6.8233623046875,0.116851806640625,-0.9893341064453125,0.167266845703125
1773251638818399200,6.833399169921875,0.1207427978515625,-0.9859771728515625,0.1655426025390625
1773251638828435200,6.843435302734375,0.1253814697265625,-0.9797515869140625,0.1660308837890625
1773251638838472200,6.85347216796875,0.126800537109375,-0.974578857421875,0.1679229736328125
1773251638848509200,6.86350927734375,0.1280670166015625,-0.972808837890625,0.170745849609375
1773251638858546200,6.873546142578125,0.1296539306640625,-0.973480224609375,0.1728515625
1773251638868583200,6.883583251953125,0.126007080078125,-0.9762420654296875,0.1720733642578125
1773251638878620200,6.8936201171875,0.1211090087890625,-0.981781005859375,0.1734466552734375
1773251638888657200,6.9036572265625,0.1229400634765625,-0.9835052490234375,0.170654296875
1773251638898694400,6.9136943359375,0.1207122802734375,-0.9839935302734375,0.1689605712890625
1773251638908731100,6.923731201171875,0.1175689697265625,-0.978118896484375,0.1680755615234375
1773251638918767000,6.93376708984375,0.1226043701171875,-0.9732208251953125,0.1685791015625
1773251638928804000,6.94380419921875,0.1273345947265625,-0.9709930419921875,0.1686248779296875
1773251638938841000,6.953841064453125,0.127288818359375,-0.9677734375,0.1678619384765625
1773251638948878300,6.96387841796875,0.1184234619140625,-0.969451904296875,0.1680450439453125
1773251638958915300,6.973915283203125,0.1136016845703125,-0.9742584228515625,0.1689453125
1773251638968952000,6.9839521484375,0.1146087646484375,-0.977264404296875,0.1682281494140625
1773251638978989000,6.993989013671875,0.1183013916015625,-0.978057861328125,0.1697540283203125
1773251638989026000,7.004026123046875,0.1207275390625,-0.9760589599609375,0.16571044921875
1773251638999063300,7.014063232421875,0.1269989013671875,-0.9756622314453125,0.16290283203125
1773251639009099300,7.024099365234375,0.131134033203125,-0.9738922119140625,0.1657867431640625
1773251639019136300,7.03413623046875,0.1291961669921875,-0.97235107421875,0.1677093505859375
1773251639029173200,7.04417333984375,0.1254425048828125,-0.97381591796875,0.167877197265625
1773251639039210000,7.0542099609375,0.1236419677734375,-0.9780426025390625,0.171844482421875
1773251639049247200,7.064247314453125,0.1210784912109375,-0.9779052734375,0.1735687255859375
1773251639059284200,7.0742841796875,0.118499755859375,-0.977081298828125,0.171173095703125
1773251639069321200,7.0843212890625,0.1166534423828125,-0.9776611328125,0.171478271484375
1773251639079358200,7.094358154296875,0.1126861572265625,-0.9772186279296875,0.173675537109375
1773251639089395200,7.104395263671875,0.1151123046875,-0.974273681640625,0.1728057861328125
1773251639099431200,7.11443115234375,0.1219635009765625,-0.9736785888671875,0.1714019775390625
1773251639109468200,7.12446826171875,0.123687744140625,-0.974822998046875,0.170989990234375
1773251639119505200,7.134505126953125,0.1236724853515625,-0.9749908447265625,0.1728057861328125
1773251639129542100,7.144542236328125,0.1249237060546875,-0.9754791259765625,0.171783447265625
1773251639139579400,7.154579345703125,0.1204071044921875,-0.9732513427734375,0.173553466796875
1773251639149616000,7.1646162109375,0.1204071044921875,-0.970062255859375,0.1748809814453125
1773251639159653000,7.174653076171875,0.1240081787109375,-0.971466064453125,0.174224853515625
1773251639169690000,7.184690185546875,0.123687744140625,-0.9743499755859375,0.172607421875
1773251639179727000,7.19472705078125,0.1270294189453125,-0.9748382568359375,0.1712646484375
1773251639189763000,7.20476318359375,0.113311767578125,-0.97369384765625,0.1748504638671875
1773251639199800300,7.21480029296875,0.1136322021484375,-0.973968505859375,0.172821044921875
1773251639209837300,7.22483740234375,0.127777099609375,-0.9748077392578125,0.1746978759765625
1773251639219874000,7.2348740234375,0.119140625,-0.9754791259765625,0.1753692626953125
1773251639229911000,7.2449111328125,0.114288330078125,-0.972930908203125,0.1748504638671875
1773251639239948300,7.2549482421875,0.11834716796875,-0.9754791259765625,0.1722564697265625
1773251639249985300,7.2649853515625,0.1172332763671875,-0.9797821044921875,0.1708526611328125
1773251639260022300,7.275022216796875,0.11041259765625,-0.9763336181640625,0.171173095703125
1773251639270059000,7.28505908203125,0.11767578125,-0.970855712890625,0.1785888671875
1773251639280095000,7.295094970703125,0.1378173828125,-0.971099853515625,0.1739501953125
1773251639290132200,7.30513232421875,0.1505584716796875,-0.9741363525390625,0.1707763671875
1773251639300169200,7.315169189453125,0.1381378173828125,-0.9754180908203125,0.1729278564453125
1773251639310206200,7.325206298828125,0.1147003173828125,-0.9765167236328125,0.1726226806640625
1773251639320243200,7.3352431640625,0.11029052734375,-0.9788055419921875,0.1742095947265625
1773251639330280200,7.3452802734375,0.1231231689453125,-0.9792327880859375,0.1786346435546875
1773251639340317200,7.355317138671875,0.1302947998046875,-0.976898193359375,0.17535400390625
1773251639350354200,7.365354248046875,0.13067626953125,-0.978485107421875,0.1716156005859375
1773251639360391200,7.37539111328125,0.1182403564453125,-0.976593017578125,0.171539306640625
1773251639370428200,7.38542822265625,0.10980224609375,-0.9720306396484375,0.172637939453125
1773251639380464000,7.395464111328125,0.113983154296875,-0.9761810302734375,0.1712493896484375
1773251639390501400,7.40550146484375,0.118560791015625,-0.974151611328125,0.173614501953125
1773251639400538000,7.4155380859375,0.11871337890625,-0.9751129150390625,0.177398681640625
1773251639410575000,7.4255751953125,0.11676025390625,-0.9769744873046875,0.17401123046875
1773251639420612000,7.435612060546875,0.117919921875,-0.976348876953125,0.172637939453125
1773251639430649300,7.4456494140625,0.124176025390625,-0.9750518798828125,0.17352294921875
1773251639440686300,7.455686279296875,0.12451171875,-0.9746856689453125,0.171875
1773251639450723000,7.46572314453125,0.123779296875,-0.9725494384765625,0.1699981689453125
1773251639460760000,7.475760009765625,0.1202239990234375,-0.9756011962890625,0.1697540283203125
1773251639470796000,7.485796142578125,0.11761474609375,-0.9767303466796875,0.171142578125
1773251639480833300,7.495833251953125,0.1167755126953125,-0.9763031005859375,0.1742095947265625
1773251639490870300,7.505870361328125,0.1148223876953125,-0.978668212890625,0.1727142333984375
1773251639500907300,7.5159072265625,0.1073455810546875,-0.9824371337890625,0.1723785400390625
1773251639510944300,7.5259443359375,0.111724853515625,-0.9840545654296875,0.17449951171875
1773251639520981000,7.53598095703125,0.127410888671875,-0.9825897216796875,0.17401123046875
1773251639531018200,7.546018310546875,0.1083221435546875,-0.978485107421875,0.174407958984375
1773251639541055200,7.55605517578125,0.103179931640625,-0.972503662109375,0.1759185791015625
1773251639551092200,7.56609228515625,0.11480712890625,-0.970428466796875,0.174560546875
1773251639561128200,7.576128173828125,0.12237548828125,-0.973175048828125,0.1729736328125
1773251639571165200,7.586165283203125,0.1188812255859375,-0.975128173828125,0.17303466796875
1773251639581202000,7.596201904296875,0.1117706298828125,-0.9759979248046875,0.174530029296875
1773251639591239200,7.6062392578125,0.114166259765625,-0.9780426025390625,0.176605224609375
1773251639601276200,7.616276123046875,0.11578369140625,-0.980194091796875,0.17523193359375
1773251639611313200,7.626313232421875,0.1147918701171875,-0.9806671142578125,0.1728668212890625
1773251639621350100,7.63635009765625,0.11279296875,-0.9771728515625,0.171356201171875
1773251639631387100,7.64638720703125,0.1110992431640625,-0.9748992919921875,0.1705169677734375
1773251639641424100,7.656424072265625,0.112335205078125,-0.9723968505859375,0.1694793701171875
1773251639651461000,7.666461181640625,0.115631103515625,-0.9733428955078125,0.166748046875
1773251639661497000,7.6764970703125,0.114898681640625,-0.972625732421875,0.1685943603515625
1773251639671534000,7.6865341796875,0.1101531982421875,-0.976806640625,0.1721954345703125
1773251639681571300,7.6965712890625,0.1071929931640625,-0.98150634765625,0.173828125
1773251639691608000,7.706608154296875,0.1075592041015625,-0.9820556640625,0.17620849609375
1773251639701645000,7.71664501953125,0.1088714599609375,-0.9846038818359375,0.174774169921875
1773251639711682000,7.72668212890625,0.108856201171875,-0.9825897216796875,0.170745849609375
1773251639721719000,7.736718994140625,0.10772705078125,-0.9785308837890625,0.169586181640625
1773251639731756300,7.74675634765625,0.1121368408203125,-0.9757232666015625,0.1671142578125
1773251639741793300,7.756793212890625,0.1153564453125,-0.973388671875,0.16339111328125
1773251639751829200,7.766829345703125,0.1099700927734375,-0.97540283203125,0.162750244140625
1773251639761866000,7.776865966796875,0.1106719970703125,-0.978546142578125,0.165374755859375
1773251639771903000,7.786903076171875,0.1122283935546875,-0.9829559326171875,0.16412353515625
1773251639781940200,7.796940185546875,0.1077728271484375,-0.9826202392578125,0.166290283203125
1773251639791977200,7.806977294921875,0.10491943359375,-0.9817962646484375,0.1689453125
1773251639802014200,7.81701416015625,0.1049652099609375,-0.98114013671875,0.1693572998046875
1773251639812051000,7.827051025390625,0.108428955078125,-0.9819793701171875,0.1667633056640625
1773251639822088200,7.837088134765625,0.1092681884765625,-0.9825592041015625,0.165313720703125
1773251639832125200,7.847125244140625,0.1113739013671875,-0.981170654296875,0.1617584228515625
1773251639842162200,7.857162109375,0.1081085205078125,-0.980743408203125,0.1614837646484375
1773251639852198100,7.8671982421875,0.1093902587890625,-0.978302001953125,0.1652984619140625
1773251639862235100,7.877235107421875,0.104339599609375,-0.97796630859375,0.168365478515625
1773251639872272100,7.887272216796875,0.0983734130859375,-0.977020263671875,0.1650543212890625
1773251639882309000,7.89730908203125,0.101348876953125,-0.974365234375,0.16986083984375
1773251639892346000,7.90734619140625,0.1049652099609375,-0.97369384765625,0.17572021484375
1773251639902383000,7.917383056640625,0.1032562255859375,-0.9735870361328125,0.176513671875
1773251639912420000,7.927420166015625,0.100250244140625,-0.9805755615234375,0.1739501953125
1773251639922457300,7.937457275390625,0.0999298095703125,-0.9847869873046875,0.1708221435546875
1773251639932494000,7.947494140625,0.1043243408203125,-0.9808349609375,0.17132568359375
1773251639942530000,7.957530029296875,0.1015625,-0.97674560546875,0.1720733642578125
1773251639952567000,7.967567138671875,0.098297119140625,-0.976226806640625,0.1698760986328125
1773251639962604000,7.97760400390625,0.0990142822265625,-0.97528076171875,0.1725616455078125
1773251639972641300,7.987641357421875,0.1017913818359375,-0.9744720458984375,0.174041748046875
1773251639982678300,7.99767822265625,0.1035614013671875,-0.9760284423828125,0.1718597412109375
1773251639992715000,8.007715087890626,0.104248046875,-0.980621337890625,0.1696624755859375
1773251640002752000,8.017751953125,0.1002044677734375,-0.984375,0.171356201171875
1773251640012789200,8.027789306640624,0.0983428955078125,-0.9816131591796875,0.169647216796875
1773251640022826200,8.037826171875,0.1003265380859375,-0.9818115234375,0.17388916015625
1773251640032862200,8.0478623046875,0.1020660400390625,-0.97967529296875,0.1725311279296875
1773251640042899200,8.057899169921875,0.10400390625,-0.97845458984375,0.170379638671875
1773251640052936200,8.067936279296875,0.106170654296875,-0.9772186279296875,0.1712799072265625
1773251640062973200,8.07797314453125,0.1041717529296875,-0.9802398681640625,0.1713104248046875
1773251640073010200,8.08801025390625,0.1032867431640625,-0.9825592041015625,0.1709442138671875
1773251640083047200,8.098047119140626,0.103546142578125,-0.9836578369140625,0.1693115234375
1773251640093084200,8.108084228515626,0.1043548583984375,-0.98309326171875,0.16949462890625
1773251640103121200,8.11812109375,0.1057586669921875,-0.9824371337890625,0.170166015625
1773251640113158100,8.128158203125,0.1078643798828125,-0.9801788330078125,0.1701507568359375
1773251640123195100,8.138195068359375,0.109344482421875,-0.9798583984375,0.168975830078125
1773251640133231000,8.148231201171875,0.108489990234375,-0.9778900146484375,0.1695404052734375
1773251640143268000,8.15826806640625,0.1109619140625,-0.9775390625,0.1717376708984375
1773251640153305000,8.16830517578125,0.1125030517578125,-0.9774322509765625,0.1725311279296875
1773251640163342300,8.17834228515625,0.1150665283203125,-0.9768524169921875,0.1720733642578125
1773251640173379000,8.188379150390626,0.117523193359375,-0.9788055419921875,0.172027587890625
1773251640183416000,8.198416015625,0.095611572265625,-0.9767303466796875,0.170318603515625
1773251640193453000,8.208453125,0.1033935546875,-0.976043701171875,0.173309326171875
1773251640203490300,8.218490234375,0.1107940673828125,-0.9756317138671875,0.17242431640625
1773251640213527300,8.22852734375,0.0959625244140625,-0.9768218994140625,0.1708221435546875
1773251640223564000,8.23856396484375,0.1107177734375,-0.977508544921875,0.1707000732421875
1773251640233600300,8.248600341796875,0.1263427734375,-0.9771575927734375,0.171844482421875
1773251640243637000,8.258636962890625,0.1147003173828125,-0.9775238037109375,0.1715545654296875
1773251640253674000,8.268674072265625,0.100738525390625,-0.975433349609375,0.1736297607421875
1773251640263711200,8.278711181640626,0.1088104248046875,-0.974700927734375,0.1755523681640625
1773251640273748200,8.288748291015626,0.1295318603515625,-0.9755401611328125,0.173583984375
1773251640283785200,8.29878515625,0.139495849609375,-0.9776153564453125,0.17169189453125
1773251640293822000,8.308822021484374,0.12506103515625,-0.97943115234375,0.1689605712890625
1773251640303859200,8.318859130859375,0.1081085205078125,-0.9803924560546875,0.169158935546875
1773251640313896200,8.328896240234375,0.1142120361328125,-0.9803924560546875,0.172515869140625
1773251640323932200,8.33893212890625,0.1230621337890625,-0.976806640625,0.173309326171875
1773251640333969200,8.34896923828125,0.123992919921875,-0.9733123779296875,0.1716766357421875
1773251640344006100,8.359006103515625,0.1160888671875,-0.971099853515625,0.1693267822265625
1773251640354043100,8.369043212890626,0.10638427734375,-0.9727630615234375,0.1706390380859375
1773251640364080000,8.379080078125,0.10400390625,-0.974578857421875,0.1658172607421875
1773251640374117000,8.3891171875,0.1125335693359375,-0.972442626953125,0.168731689453125
1773251640384154000,8.399154052734374,0.121246337890625,-0.970123291015625,0.1724700927734375
1773251640394191000,8.409191162109375,0.122161865234375,-0.971588134765625,0.172821044921875
1773251640404228000,8.41922802734375,0.12103271484375,-0.974884033203125,0.171966552734375
1773251640414265000,8.42926513671875,0.1227874755859375,-0.9781951904296875,0.174102783203125
1773251640424302000,8.439302001953125,0.124664306640625,-0.9822998046875,0.174957275390625
1773251640434338000,8.449338134765625,0.1267547607421875,-0.982635498046875,0.178955078125
1773251640444375000,8.459375,0.124114990234375,-0.980682373046875,0.1800689697265625
1773251640454412300,8.469412353515626,0.116485595703125,-0.9818878173828125,0.180755615234375
1773251640464449300,8.47944921875,0.1165618896484375,-0.9849853515625,0.175750732421875
1773251640474486000,8.489486083984374,0.1194610595703125,-0.98419189453125,0.173095703125
1773251640484523000,8.49952294921875,0.116851806640625,-0.9805908203125,0.17266845703125
1773251640494560300,8.509560302734375,0.1144256591796875,-0.9764556884765625,0.1729888916015625
1773251640504597200,8.51959716796875,0.137451171875,-0.9765625,0.1726531982421875
1773251640514634200,8.52963427734375,0.129150390625,-0.9749603271484375,0.170379638671875
1773251640524670200,8.539670166015625,0.1049041748046875,-0.9704742431640625,0.173583984375
1773251640534707000,8.54970703125,0.1104583740234375,-0.967041015625,0.1771697998046875
1773251640544743700,8.55974365234375,0.122314453125,-0.968048095703125,0.178131103515625
1773251640554781000,8.569781005859374,0.123565673828125,-0.9720306396484375,0.1764984130859375
1773251640564818000,8.57981787109375,0.11798095703125,-0.977569580078125,0.172393798828125
1773251640574855000,8.58985498046875,0.119384765625,-0.981201171875,0.1705322265625
1773251640584892000,8.599891845703125,0.1249237060546875,-0.9795684814453125,0.171356201171875
1773251640594929000,8.609928955078125,0.128082275390625,-0.9769287109375,0.171905517578125
1773251640604966000,8.6199658203125,0.1295623779296875,-0.9739532470703125,0.1679229736328125
1773251640615003000,8.6300029296875,0.129974365234375,-0.9722747802734375,0.1711578369140625
1773251640625038800,8.640038818359375,0.1286163330078125,-0.973297119140625,0.1734466552734375
1773251640635075800,8.650075927734376,0.12359619140625,-0.9732666015625,0.173828125
1773251640645113000,8.660113037109374,0.120880126953125,-0.9753265380859375,0.17535400390625
1773251640655149800,8.67014990234375,0.121673583984375,-0.9781341552734375,0.1776580810546875
1773251640665186800,8.680186767578125,0.118743896484375,-0.9794158935546875,0.17669677734375
1773251640675223800,8.690223876953125,0.1194305419921875,-0.9807891845703125,0.172943115234375
1773251640685261000,8.700260986328125,0.1211700439453125,-0.982421875,0.170623779296875
1773251640695298000,8.710298095703125,0.123291015625,-0.9781951904296875,0.1695556640625
1773251640705334800,8.720334716796875,0.1255035400390625,-0.97625732421875,0.168670654296875
1773251640715371800,8.730371826171876,0.12762451171875,-0.973541259765625,0.1680755615234375
1773251640725407700,8.74040771484375,0.129302978515625,-0.97344970703125,0.1699981689453125
1773251640735444700,8.75044482421875,0.1272125244140625,-0.97381591796875,0.1726531982421875
1773251640745482000,8.76048193359375,0.1255950927734375,-0.9731903076171875,0.1763153076171875
1773251640755519000,8.77051904296875,0.125213623046875,-0.97479248046875,0.1791229248046875
1773251640765556000,8.780555908203125,0.123382568359375,-0.975830078125,0.1766204833984375
1773251640775592700,8.7905927734375,0.12115478515625,-0.9758453369140625,0.1732635498046875
1773251640785630000,8.8006298828125,0.118072509765625,-0.9747161865234375,0.1738128662109375
1773251640795667000,8.8106669921875,0.1232757568359375,-0.975250244140625,0.1718902587890625
1773251640805704000,8.820703857421876,0.1259307861328125,-0.969573974609375,0.171661376953125
1773251640815741000,8.830740966796874,0.12530517578125,-0.965972900390625,0.171722412109375
1773251640825778000,8.84077783203125,0.124908447265625,-0.96728515625,0.171142578125
1773251640835814000,8.85081396484375,0.129730224609375,-0.9717864990234375,0.1717376708984375
1773251640845851000,8.860850830078125,0.1286468505859375,-0.9735107421875,0.1773834228515625
1773251640855888000,8.870887939453125,0.1241302490234375,-0.9762115478515625,0.1787261962890625
1773251640865924900,8.8809248046875,0.12579345703125,-0.979736328125,0.177001953125
1773251640875961900,8.8909619140625,0.1292266845703125,-0.9775543212890625,0.1765594482421875
1773251640885998800,8.900998779296875,0.132049560546875,-0.9769287109375,0.174591064453125
1773251640896035800,8.911035888671876,0.132110595703125,-0.975311279296875,0.1727447509765625
1773251640906072800,8.92107275390625,0.13275146484375,-0.97332763671875,0.17449951171875
1773251640916109800,8.93110986328125,0.13037109375,-0.9742889404296875,0.1755218505859375
1773251640926147000,8.94114697265625,0.12957763671875,-0.975860595703125,0.1761016845703125
1773251640936183800,8.951183837890625,0.12750244140625,-0.976531982421875,0.175445556640625
1773251640946220000,8.961219970703125,0.127777099609375,-0.975494384765625,0.17401123046875
1773251640956256800,8.9712568359375,0.126678466796875,-0.9755096435546875,0.175384521484375
1773251640966293800,8.981293701171875,0.1241912841796875,-0.9750213623046875,0.1765289306640625
1773251640976331000,8.9913310546875,0.1244659423828125,-0.97540283203125,0.173065185546875
1773251640986368000,9.001367919921876,0.1288909912109375,-0.9753265380859375,0.1723175048828125
1773251640996405000,9.011405029296874,0.1324462890625,-0.970367431640625,0.17254638671875
1773251641006441700,9.021441650390624,0.1356964111328125,-0.9663543701171875,0.175384521484375
1773251641016478700,9.031478759765625,0.1298828125,-0.9664764404296875,0.175262451171875
1773251641026516000,9.041515869140625,0.120819091796875,-0.9696502685546875,0.1765899658203125
1773251641036553000,9.051552978515625,0.116912841796875,-0.9720001220703125,0.1774749755859375
1773251641046590000,9.06158984375,0.116668701171875,-0.9724273681640625,0.1771240234375
1773251641056626000,9.0716259765625,0.12127685546875,-0.97088623046875,0.177337646484375
1773251641066663000,9.081662841796875,0.1276702880859375,-0.968505859375,0.1756744384765625
1773251641076700000,9.091699951171876,0.1339111328125,-0.9680938720703125,0.173980712890625
1773251641086737000,9.10173681640625,0.1392822265625,-0.9704437255859375,0.1714019775390625
1773251641096774000,9.11177392578125,0.1363677978515625,-0.972015380859375,0.1732330322265625
1773251641106811000,9.121810791015625,0.13226318359375,-0.97186279296875,0.17852783203125
1773251641116847900,9.131847900390625,0.1233978271484375,-0.976959228515625,0.1839141845703125
1773251641126884900,9.141884765625,0.116851806640625,-0.9810333251953125,0.1817626953125
1773251641136921900,9.151921875,0.1260223388671875,-0.981689453125,0.1796722412109375
1773251641146958800,9.161958740234375,0.122894287109375,-0.9828948974609375,0.1770172119140625
1773251641156996000,9.17199609375,0.087860107421875,-0.9755096435546875,0.17950439453125
1773251641167032800,9.18203271484375,0.106536865234375,-0.9709320068359375,0.1819305419921875
1773251641177069000,9.192069091796874,0.1576080322265625,-0.9779510498046875,0.181121826171875
1773251641187105800,9.202105712890624,0.145050048828125,-0.9787750244140625,0.174835205078125
1773251641197142800,9.212142822265625,0.1091156005859375,-0.971588134765625,0.178192138671875
1773251641207179800,9.2221796875,0.10614013671875,-0.9710235595703125,0.1851806640625
1773251641217217000,9.232217041015625,0.1025543212890625,-0.9690093994140625,0.186065673828125
1773251641227254000,9.24225390625,0.1168670654296875,-0.9680023193359375,0.186920166015625
1773251641237290800,9.252290771484375,0.13031005859375,-0.969757080078125,0.186126708984375
1773251641247327700,9.26232763671875,0.1351470947265625,-0.9718017578125,0.18218994140625
1773251641257365000,9.272364990234376,0.12933349609375,-0.9749755859375,0.178741455078125
1773251641267402000,9.282402099609374,0.1121978759765625,-0.9764862060546875,0.1772613525390625
1773251641277439000,9.29243896484375,0.1060028076171875,-0.9758758544921875,0.180816650390625
1773251641287475000,9.302474853515625,0.1197662353515625,-0.9766387939453125,0.1858367919921875
1773251641297512000,9.312511962890625,0.12786865234375,-0.972686767578125,0.186004638671875
1773251641307549000,9.322548828125,0.1226959228515625,-0.968963623046875,0.183135986328125
1773251641317586000,9.3325859375,0.11932373046875,-0.9680938720703125,0.1797332763671875
1773251641327623000,9.342622802734375,0.115570068359375,-0.9725799560546875,0.1759033203125
1773251641337660000,9.352659912109376,0.11065673828125,-0.9744873046875,0.1751708984375
1773251641347697000,9.36269677734375,0.1141204833984375,-0.978240966796875,0.175689697265625
1773251641357734000,9.37273388671875,0.1197052001953125,-0.979705810546875,0.17254638671875
1773251641367771000,9.38277099609375,0.1184234619140625,-0.981475830078125,0.1717987060546875
1773251641377808000,9.392807861328125,0.1134033203125,-0.9785919189453125,0.174285888671875
1773251641387844900,9.402844970703125,0.1164398193359375,-0.977874755859375,0.17828369140625
1773251641397882000,9.412882080078125,0.118255615234375,-0.9777984619140625,0.18182373046875
1773251641407918800,9.4229189453125,0.1187286376953125,-0.978302001953125,0.1800537109375
1773251641417954800,9.432954833984375,0.118804931640625,-0.97821044921875,0.1796112060546875
1773251641427991800,9.44299169921875,0.12127685546875,-0.976043701171875,0.17596435546875
1773251641438028800,9.45302880859375,0.1244964599609375,-0.974761962890625,0.1727142333984375
1773251641448066000,9.463066162109374,0.1185760498046875,-0.969696044921875,0.1704864501953125
1773251641458103000,9.47310302734375,0.12518310546875,-0.9703521728515625,0.172607421875
1773251641468139800,9.483139892578125,0.14093017578125,-0.974761962890625,0.1745758056640625
1773251641478176800,9.4931767578125,0.11175537109375,-0.9734649658203125,0.177276611328125
1773251641488213800,9.5032138671875,0.10760498046875,-0.97607421875,0.1813507080078125
1773251641498251000,9.5132509765625,0.1200408935546875,-0.9748687744140625,0.1835174560546875
1773251641508288000,9.5232880859375,0.1292724609375,-0.975433349609375,0.1831817626953125
1773251641518324700,9.53332470703125,0.12261962890625,-0.9764556884765625,0.1836090087890625
1773251641528361700,9.54336181640625,0.11871337890625,-0.978271484375,0.1827850341796875
1773251641538399000,9.55339892578125,0.123748779296875,-0.97576904296875,0.1789093017578125
1773251641548434400,9.563434326171874,0.128021240234375,-0.97467041015625,0.1782073974609375
1773251641558471700,9.5734716796875,0.130096435546875,-0.9747772216796875,0.17822265625
1773251641568508700,9.5835087890625,0.1250152587890625,-0.9771575927734375,0.1782684326171875
1773251641578545700,9.593545654296875,0.117645263671875,-0.9757537841796875,0.1787872314453125
1773251641588582400,9.60358251953125,0.1184844970703125,-0.971160888671875,0.1805572509765625
1773251641598619400,9.613619384765625,0.1239776611328125,-0.970245361328125,0.178375244140625
1773251641608656600,9.62365673828125,0.12420654296875,-0.9729766845703125,0.177520751953125
1773251641618693600,9.633693603515624,0.1222686767578125,-0.97344970703125,0.17889404296875
1773251641628730600,9.643730712890624,0.1262969970703125,-0.97406005859375,0.1790924072265625
1773251641638767400,9.653767333984375,0.133148193359375,-0.97509765625,0.1788330078125
1773251641648804600,9.6638046875,0.133209228515625,-0.9744720458984375,0.17919921875
1773251641658841600,9.673841552734375,0.1260223388671875,-0.9730224609375,0.181884765625
1773251641668877600,9.683877685546875,0.119720458984375,-0.972198486328125,0.1794281005859375
1773251641678914600,9.69391455078125,0.120208740234375,-0.974029541015625,0.18023681640625
1773251641688951600,9.70395166015625,0.12408447265625,-0.9769134521484375,0.179656982421875
1773251641698988800,9.71398876953125,0.122955322265625,-0.9775390625,0.17376708984375
1773251641709025500,9.724025634765624,0.1190338134765625,-0.97607421875,0.1746063232421875
1773251641719062500,9.7340625,0.1210479736328125,-0.9729156494140625,0.17425537109375
1773251641729099500,9.744099609375,0.122650146484375,-0.9730072021484375,0.1699981689453125
1773251641739136500,9.754136474609375,0.1229248046875,-0.974517822265625,0.1744537353515625
1773251641749173800,9.764173828125,0.1228485107421875,-0.978424072265625,0.17877197265625
1773251641759210500,9.77421044921875,0.1240997314453125,-0.979248046875,0.1765899658203125
1773251641769247500,9.78424755859375,0.125518798828125,-0.979248046875,0.17315673828125
1773251641779284500,9.794284423828126,0.12774658203125,-0.9776763916015625,0.1741485595703125
1773251641789321700,9.80432177734375,0.126129150390625,-0.97393798828125,0.17340087890625
1773251641799357700,9.814357666015624,0.1255950927734375,-0.970794677734375,0.173797607421875
1773251641809394700,9.824394775390624,0.1253204345703125,-0.9709320068359375,0.174652099609375
1773251641819431400,9.834431396484375,0.122528076171875,-0.9705047607421875,0.1811676025390625
1773251641829468400,9.844468505859375,0.1212158203125,-0.9741363525390625,0.1800384521484375
1773251641839505700,9.854505615234375,0.1216278076171875,-0.9746246337890625,0.1780853271484375
1773251641849542700,9.864542724609375,0.122802734375,-0.975128173828125,0.1799468994140625
1773251641859579600,9.87457958984375,0.1231689453125,-0.9773712158203125,0.1778717041015625
1773251641869616400,9.884616455078126,0.121734619140625,-0.978546142578125,0.17547607421875
1773251641879653400,9.8946533203125,0.122650146484375,-0.9769134521484375,0.174041748046875
1773251641889690600,9.904690673828124,0.1254730224609375,-0.9748382568359375,0.1713104248046875
1773251641899727600,9.9147275390625,0.125457763671875,-0.9751434326171875,0.167327880859375
1773251641909764600,9.9247646484375,0.127349853515625,-0.9722747802734375,0.1697235107421875
1773251641919801600,9.934801513671875,0.1292724609375,-0.9724884033203125,0.1739349365234375
1773251641929837600,9.944837646484375,0.126800537109375,-0.9750213623046875,0.1761474609375
1773251641939874600,9.95487451171875,0.121368408203125,-0.9773712158203125,0.1762237548828125
1773251641949911600,9.96491162109375,0.124481201171875,-0.9775238037109375,0.1763153076171875
1773251641959948500,9.974948486328126,0.1263885498046875,-0.9782562255859375,0.1762847900390625
1773251641969985500,9.984985595703124,0.1239166259765625,-0.9781494140625,0.1732177734375
1773251641980022800,9.995022705078124,0.1195526123046875,-0.9757080078125,0.1716766357421875
1773251641990059500,10.0050595703125,0.1188201904296875,-0.976043701171875,0.17108154296875
1773251642000096500,10.015096435546875,0.11907958984375,-0.97686767578125,0.169708251953125
1773251642010133500,10.025133544921875,0.1214752197265625,-0.9770965576171875,0.1739501953125
1773251642020170500,10.03517041015625,0.12530517578125,-0.9775238037109375,0.176361083984375
1773251642030207700,10.045207763671876,0.12530517578125,-0.97430419921875,0.1749267578125
1773251642040244500,10.055244384765626,0.12408447265625,-0.9732513427734375,0.1750946044921875
1773251642050281500,10.065281494140624,0.123687744140625,-0.975860595703125,0.173492431640625
1773251642060317400,10.0753173828125,0.122039794921875,-0.9776763916015625,0.1708526611328125
1773251642070354400,10.0853544921875,0.1197967529296875,-0.9789581298828125,0.167724609375
1773251642080391700,10.0953916015625,0.1225433349609375,-0.9774322509765625,0.1680450439453125
1773251642090428700,10.1054287109375,0.1281890869140625,-0.976318359375,0.173492431640625
1773251642100465700,10.115465576171875,0.111236572265625,-0.9748992919921875,0.1737213134765625
1773251642110502400,10.12550244140625,0.118896484375,-0.9767303466796875,0.173248291015625
1773251642120539600,10.13553955078125,0.1235504150390625,-0.977874755859375,0.1749725341796875
1773251642130576600,10.14557666015625,0.106170654296875,-0.9767608642578125,0.1736602783203125
1773251642140613600,10.155613525390624,0.118255615234375,-0.975433349609375,0.1727752685546875
1773251642150650600,10.165650634765624,0.128753662109375,-0.9746551513671875,0.170806884765625
1773251642160687400,10.175687255859375,0.1162261962890625,-0.9700927734375,0.1729888916015625
1773251642170724600,10.185724609375,0.1107330322265625,-0.9678192138671875,0.1779327392578125
1773251642180761600,10.19576171875,0.1245269775390625,-0.9680938720703125,0.1781005859375
1773251642190797600,10.205797607421875,0.13836669921875,-0.97296142578125,0.172882080078125
1773251642200834600,10.21583447265625,0.1363677978515625,-0.9782257080078125,0.169219970703125
1773251642210871600,10.22587158203125,0.1182861328125,-0.9805450439453125,0.16888427734375
1773251642220908500,10.235908447265626,0.1039581298828125,-0.980133056640625,0.16851806640625
1773251642230945500,10.245945556640624,0.110443115234375,-0.9789886474609375,0.1717987060546875
1773251642240982500,10.255982421875,0.1231536865234375,-0.9759368896484375,0.175079345703125
1773251642251019500,10.26601953125,0.126190185546875,-0.9761199951171875,0.17572021484375
1773251642261056800,10.276056884765625,0.11968994140625,-0.974884033203125,0.1696624755859375
1773251642271093500,10.286093505859375,0.11187744140625,-0.9762725830078125,0.1646881103515625
1773251642281130500,10.296130615234375,0.1051025390625,-0.9754180908203125,0.1644134521484375
1773251642291167500,10.30616748046875,0.1052703857421875,-0.9759521484375,0.1638031005859375
1773251642301204500,10.31620458984375,0.1177978515625,-0.9735565185546875,0.165130615234375
1773251642311241700,10.32624169921875,0.121917724609375,-0.974456787109375,0.1660614013671875
1773251642321277700,10.336277587890624,0.11761474609375,-0.973297119140625,0.1679534912109375
1773251642331314700,10.346314697265624,0.1125030517578125,-0.97406005859375,0.1714019775390625
1773251642341351400,10.356351318359375,0.1134490966796875,-0.9772186279296875,0.1742095947265625
1773251642351388400,10.366388427734375,0.121612548828125,-0.9824066162109375,0.1722259521484375
1773251642361425700,10.37642578125,0.1206817626953125,-0.980438232421875,0.1701812744140625
1773251642371462700,10.386462646484375,0.116912841796875,-0.9796295166015625,0.16925048828125
1773251642381499600,10.396499755859375,0.1142425537109375,-0.979034423828125,0.1649932861328125
1773251642391536400,10.406536376953126,0.1197967529296875,-0.9770355224609375,0.1644134521484375
1773251642401573600,10.41657373046875,0.1198272705078125,-0.9789276123046875,0.169586181640625
1773251642411610600,10.426610595703124,0.1060333251953125,-0.981201171875,0.172515869140625
1773251642421647600,10.436647705078125,0.1117401123046875,-0.983154296875,0.1754913330078125
1773251642431684600,10.4466845703125,0.1234283447265625,-0.9839019775390625,0.178924560546875
1773251642441721600,10.4567216796875,0.0989532470703125,-0.9781036376953125,0.1826324462890625
1773251642451757600,10.466757568359375,0.0937957763671875,-0.9757080078125,0.1819305419921875
1773251642461794600,10.476794677734375,0.1086578369140625,-0.974578857421875,0.171844482421875
1773251642471831600,10.48683154296875,0.118377685546875,-0.973388671875,0.1689300537109375
1773251642481868500,10.49686865234375,0.1187744140625,-0.9734039306640625,0.1702117919921875
1773251642491905500,10.506905517578126,0.114349365234375,-0.9744110107421875,0.16876220703125
1773251642501942500,10.516942626953124,0.1131439208984375,-0.976287841796875,0.17071533203125
1773251642511979500,10.5269794921875,0.1173553466796875,-0.9763946533203125,0.173675537109375
1773251642522016500,10.5370166015625,0.1212158203125,-0.977813720703125,0.17108154296875
1773251642532053500,10.547053466796875,0.115081787109375,-0.9768829345703125,0.170440673828125
1773251642542090800,10.5570908203125,0.1089935302734375,-0.9762115478515625,0.1722259521484375
1773251642552127500,10.56712744140625,0.1091461181640625,-0.976806640625,0.171875
1773251642562164500,10.57716455078125,0.1099700927734375,-0.97760009765625,0.1699371337890625
1773251642572200400,10.587200439453126,0.109039306640625,-0.9779052734375,0.17144775390625
1773251642582237400,10.597237548828126,0.10870361328125,-0.9778594970703125,0.17742919921875
1773251642592274700,10.607274658203124,0.108734130859375,-0.9780426025390625,0.180908203125
1773251642602311700,10.617311767578125,0.1112518310546875,-0.9774932861328125,0.179168701171875
1773251642612348700,10.6273486328125,0.11126708984375,-0.9792633056640625,0.1751251220703125
1773251642622385400,10.637385498046875,0.1100311279296875,-0.9799346923828125,0.17236328125
1773251642632422400,10.64742236328125,0.11151123046875,-0.9799346923828125,0.173309326171875
1773251642642459600,10.657459716796875,0.1121673583984375,-0.9748687744140625,0.1739044189453125
1773251642652496600,10.66749658203125,0.1136627197265625,-0.9724884033203125,0.1771087646484375
1773251642662533600,10.67753369140625,0.111083984375,-0.9736328125,0.17742919921875
1773251642672570400,10.6875703125,0.10626220703125,-0.974945068359375,0.1719818115234375
1773251642682607600,10.697607666015625,0.103607177734375,-0.9775238037109375,0.17401123046875
1773251642692644600,10.70764453125,0.105438232421875,-0.9803314208984375,0.174713134765625
1773251642702680600,10.7176806640625,0.1058197021484375,-0.9799346923828125,0.1738739013671875
1773251642712717600,10.727717529296875,0.1093292236328125,-0.977325439453125,0.174102783203125
1773251642722754600,10.737754638671875,0.111114501953125,-0.9759979248046875,0.1749420166015625
1773251642732791600,10.74779150390625,0.1130828857421875,-0.9761810302734375,0.1711273193359375
1773251642742828500,10.75782861328125,0.112091064453125,-0.9767303466796875,0.16900634765625
1773251642752865500,10.767865478515626,0.108001708984375,-0.975555419921875,0.17047119140625
1773251642762902500,10.777902587890624,0.107452392578125,-0.97509765625,0.1740875244140625
1773251642772939500,10.787939453125,0.109649658203125,-0.9747772216796875,0.17340087890625
1773251642782976500,10.7979765625,0.1109771728515625,-0.97552490234375,0.1742401123046875
1773251642793013500,10.808013427734375,0.1136474609375,-0.97235107421875,0.172027587890625
1773251642803050500,10.818050537109375,0.1139373779296875,-0.9730682373046875,0.173614501953125
1773251642813087500,10.82808740234375,0.114898681640625,-0.9743194580078125,0.1800537109375
1773251642823124700,10.838124755859376,0.11181640625,-0.9744720458984375,0.179473876953125
1773251642833160700,10.84816064453125,0.109405517578125,-0.97607421875,0.1779937744140625
1773251642843197700,10.85819775390625,0.113189697265625,-0.9784088134765625,0.1768646240234375
1773251642853234400,10.868234375,0.1095123291015625,-0.9801177978515625,0.1767120361328125
1773251642863271400,10.878271484375,0.1029052734375,-0.9795379638671875,0.1737518310546875
1773251642873308700,10.88830859375,0.1036834716796875,-0.976043701171875,0.173736572265625
1773251642883345700,10.898345703125,0.1104278564453125,-0.9762420654296875,0.1733551025390625
1773251642893382700,10.908382568359375,0.1095428466796875,-0.9777069091796875,0.172882080078125
1773251642903419400,10.91841943359375,0.1046905517578125,-0.975433349609375,0.172332763671875
1773251642913456600,10.92845654296875,0.104705810546875,-0.975830078125,0.174407958984375
1773251642923493600,10.93849365234375,0.1089935302734375,-0.9763031005859375,0.180511474609375
1773251642933530600,10.948530517578124,0.109222412109375,-0.977203369140625,0.1827239990234375
1773251642943567600,10.958567626953124,0.1056671142578125,-0.9796142578125,0.1825408935546875
1773251642953604400,10.968604248046875,0.105987548828125,-0.979034423828125,0.179840087890625
1773251642963640600,10.978640625,0.1092987060546875,-0.9760589599609375,0.1722869873046875
1773251642973677600,10.988677490234375,0.11083984375,-0.9729766845703125,0.1695556640625
1773251642983714600,10.998714599609375,0.11053466796875,-0.969818115234375,0.172271728515625
1773251642993751600,11.00875146484375,0.1150665283203125,-0.970184326171875,0.1764678955078125
1773251643003788500,11.01878857421875,0.1027679443359375,-0.9738616943359375,0.18084716796875
1773251643013825500,11.028825439453126,0.0943145751953125,-0.978179931640625,0.18511962890625
1773251643023862500,11.038862548828124,0.1196136474609375,-0.9837493896484375,0.1860198974609375
1773251643033899500,11.0488994140625,0.1051025390625,-0.9815673828125,0.1812744140625
1773251643043936500,11.0589365234375,0.0856475830078125,-0.9763946533203125,0.181060791015625
1773251643053973800,11.068973876953125,0.123992919921875,-0.975341796875,0.183624267578125
1773251643064010500,11.079010498046875,0.124053955078125,-0.9716339111328125,0.1829071044921875
1773251643074047500,11.089047607421875,0.09942626953125,-0.969268798828125,0.18487548828125
1773251643084083500,11.09908349609375,0.0960693359375,-0.967529296875,0.1853790283203125
1773251643094120400,11.109120361328126,0.1100616455078125,-0.969268798828125,0.185699462890625
1773251643104157400,11.119157470703126,0.123626708984375,-0.97344970703125,0.1831512451171875
1773251643114194700,11.129194580078124,0.114471435546875,-0.976654052734375,0.180633544921875
1773251643124231700,11.139231689453124,0.0965576171875,-0.979248046875,0.18341064453125
1773251643134268400,11.149268310546875,0.0970001220703125,-0.9798583984375,0.1833648681640625
1773251643144305400,11.159305419921875,0.1126251220703125,-0.978240966796875,0.1858062744140625
1773251643154342700,11.1693427734375,0.117431640625,-0.97467041015625,0.1850738525390625
1773251643164379600,11.179379638671875,0.110382080078125,-0.971649169921875,0.179595947265625
1773251643174416600,11.189416748046876,0.102874755859375,-0.9726409912109375,0.1736297607421875
1773251643184453400,11.199453369140626,0.09490966796875,-0.9719696044921875,0.17437744140625
1773251643194490600,11.20949072265625,0.0984649658203125,-0.9736785888671875,0.178741455078125
1773251643204526600,11.219526611328124,0.106781005859375,-0.97625732421875,0.1835479736328125
1773251643214563600,11.2295634765625,0.1105804443359375,-0.977935791015625,0.186187744140625
1773251643224600600,11.2396005859375,0.106414794921875,-0.9781494140625,0.187591552734375
1773251643234637600,11.249637451171875,0.1050262451171875,-0.97607421875,0.1842498779296875
1773251643244674600,11.259674560546875,0.105560302734375,-0.977996826171875,0.178863525390625
1773251643254711600,11.269711669921875,0.106597900390625,-0.9783477783203125,0.174407958984375
1773251643264748500,11.27974853515625,0.1063079833984375,-0.9815521240234375,0.1754150390625
1773251643274785500,11.28978564453125,0.1052703857421875,-0.9815216064453125,0.1781158447265625
1773251643284822500,11.299822509765624,0.1023712158203125,-0.980865478515625,0.1819915771484375
1773251643294859500,11.309859619140624,0.10260009765625,-0.9815673828125,0.17974853515625
1773251643304896500,11.319896484375,0.097930908203125,-0.982177734375,0.17779541015625
1773251643314933500,11.32993359375,0.0856475830078125,-0.98114013671875,0.179718017578125
1773251643324969500,11.339969482421875,0.103179931640625,-0.9786834716796875,0.1790771484375
1773251643335006500,11.35000634765625,0.113922119140625,-0.9771575927734375,0.1751861572265625
1773251643345043700,11.360043701171875,0.0881805419921875,-0.9735260009765625,0.1756134033203125
1773251643355080700,11.370080810546876,0.0838775634765625,-0.97186279296875,0.18017578125
1773251643365117400,11.380117431640626,0.096649169921875,-0.970672607421875,0.1812591552734375
1773251643375154400,11.390154541015624,0.1079864501953125,-0.9724273681640625,0.18072509765625
1773251643385191700,11.400191650390624,0.10699462890625,-0.9727020263671875,0.17828369140625
1773251643395228700,11.410228759765625,0.09637451171875,-0.974090576171875,0.179107666015625
1773251643405265700,11.420265625,0.090728759765625,-0.9745941162109375,0.1735992431640625
1773251643415302400,11.430302490234375,0.0980987548828125,-0.9760284423828125,0.1690673828125
1773251643425339400,11.44033935546875,0.10418701171875,-0.9773406982421875,0.163909912109375
1773251643435376600,11.450376708984376,0.10107421875,-0.975372314453125,0.1657867431640625
1773251643445413600,11.46041357421875,0.096954345703125,-0.981781005859375,0.17279052734375
1773251643455449600,11.47044970703125,0.096954345703125,-0.988372802734375,0.174957275390625
1773251643465486600,11.480486572265624,0.097747802734375,-0.98828125,0.1766204833984375
1773251643475523600,11.490523681640624,0.0955810546875,-0.9871673583984375,0.1750030517578125
1773251643485560600,11.500560546875,0.096343994140625,-0.9849853515625,0.1736602783203125
1773251643495597600,11.51059765625,0.0974578857421875,-0.980316162109375,0.172607421875
1773251643505634600,11.520634521484375,0.1011199951171875,-0.9805755615234375,0.1723175048828125
1773251643515671600,11.530671630859375,0.10345458984375,-0.983734130859375,0.1703338623046875
1773251643525708800,11.540708740234376,0.1013946533203125,-0.9853515625,0.1696319580078125
1773251643535745500,11.55074560546875,0.0999908447265625,-0.9852294921875,0.170562744140625
1773251643545782500,11.560782470703124,0.095947265625,-0.9830322265625,0.17193603515625
1773251643555819500,11.570819580078124,0.0940704345703125,-0.978607177734375,0.171966552734375
1773251643565855500,11.58085546875,0.0935821533203125,-0.975433349609375,0.1712493896484375
1773251643575892500,11.590892578125,0.097900390625,-0.9734039306640625,0.17034912109375
1773251643585929700,11.6009296875,0.0993499755859375,-0.9738311767578125,0.169769287109375
1773251643595966500,11.610966552734375,0.100433349609375,-0.9736785888671875,0.1716766357421875
1773251643606003500,11.62100341796875,0.105224609375,-0.9781036376953125,0.17230224609375
1773251643616040400,11.63104052734375,0.102508544921875,-0.984832763671875,0.168731689453125
1773251643626077400,11.641077392578126,0.098480224609375,-0.9850921630859375,0.171356201171875
1773251643636114700,11.65111474609375,0.0980072021484375,-0.98614501953125,0.174072265625
1773251643646151400,11.6611513671875,0.0986785888671875,-0.9872283935546875,0.1719818115234375
1773251643656188400,11.6711884765625,0.09979248046875,-0.98565673828125,0.167694091796875
1773251643666225400,11.681225341796875,0.1005859375,-0.9821014404296875,0.167083740234375
1773251643676262700,11.6912626953125,0.1017608642578125,-0.9798431396484375,0.163909912109375
1773251643686298600,11.701298583984375,0.106109619140625,-0.9787139892578125,0.162628173828125
1773251643696335600,11.711335693359375,0.1039581298828125,-0.98046875,0.160614013671875
1773251643706372600,11.72137255859375,0.0971527099609375,-0.982025146484375,0.1628570556640625
1773251643716409300,11.731409423828126,0.0944976806640625,-0.9861907958984375,0.163482666015625
1773251643726446600,11.741446533203124,0.096343994140625,-0.98699951171875,0.16424560546875
1773251643736483600,11.751483642578124,0.1048126220703125,-0.9842376708984375,0.16143798828125
1773251643746520600,11.7615205078125,0.1095123291015625,-0.98114013671875,0.1613311767578125
1773251643756557600,11.7715576171875,0.1084442138671875,-0.9770050048828125,0.157318115234375
1773251643766594300,11.78159423828125,0.1078643798828125,-0.9750823974609375,0.1572113037109375
1773251643776631600,11.791631591796875,0.112701416015625,-0.974639892578125,0.1579742431640625
1773251643786668500,11.80166845703125,0.108642578125,-0.975494384765625,0.159027099609375
1773251643796705500,11.81170556640625,0.10211181640625,-0.9772491455078125,0.164306640625
1773251643806742500,11.821742431640626,0.108367919921875,-0.9817047119140625,0.1670989990234375
1773251643816778500,11.831778564453124,0.0998077392578125,-0.9856719970703125,0.1658477783203125
1773251643826815500,11.8418154296875,0.08685302734375,-0.98193359375,0.1638031005859375
1773251643836852500,11.8518525390625,0.1126556396484375,-0.9786224365234375,0.161407470703125
1773251643846889500,11.861889404296875,0.1192169189453125,-0.9773101806640625,0.1612548828125
1773251643856926500,11.871926513671875,0.094512939453125,-0.9712677001953125,0.162078857421875
1773251643866963700,11.881963623046875,0.1190338134765625,-0.97015380859375,0.165191650390625
1773251643877000400,11.89200048828125,0.1373138427734375,-0.9725189208984375,0.1674346923828125
1773251643887037400,11.902037353515626,0.1146087646484375,-0.9698028564453125,0.172943115234375
1773251643897074400,11.912074462890626,0.0935211181640625,-0.9686737060546875,0.1791839599609375
1773251643907111400,11.922111328125,0.1039886474609375,-0.969818115234375,0.176666259765625
1773251643917148700,11.932148681640625,0.1222686767578125,-0.97723388671875,0.170684814453125
1773251643927184600,11.9421845703125,0.1277618408203125,-0.98223876953125,0.1660003662109375
1773251643937221600,11.9522216796875,0.11334228515625,-0.98150634765625,0.1675262451171875
1773251643947258400,11.96225830078125,0.1080169677734375,-0.980072021484375,0.1678314208984375
1773251643957295400,11.97229541015625,0.1183319091796875,-0.97930908203125,0.1681976318359375
1773251643967332600,11.98233251953125,0.1245574951171875,-0.976654052734375,0.171417236328125
1773251643977369600,11.99236962890625,0.123931884765625,-0.9742889404296875,0.1736907958984375
1773251643987406600,12.002406494140626,0.1201171875,-0.9735870361328125,0.17132568359375
1773251643997443300,12.012443359375,0.1122894287109375,-0.973480224609375,0.168243408203125
1773251644007480600,12.02248046875,0.114166259765625,-0.976898193359375,0.1636505126953125
1773251644017517600,12.032517578125,0.1199798583984375,-0.9816131591796875,0.1613311767578125
1773251644027554600,12.042554443359375,0.1269683837890625,-0.9835968017578125,0.1627655029296875
1773251644037591600,12.052591552734375,0.1277313232421875,-0.984832763671875,0.163848876953125
1773251644047627500,12.06262744140625,0.126739501953125,-0.9843292236328125,0.1659393310546875
1773251644057664500,12.07266455078125,0.1233673095703125,-0.982696533203125,0.168853759765625
1773251644067701500,12.082701416015626,0.12109375,-0.9813079833984375,0.1690826416015625
1773251644077738500,12.092738525390626,0.1206817626953125,-0.9825439453125,0.1673583984375
1773251644087775500,12.102775390625,0.1194305419921875,-0.9835662841796875,0.1663360595703125
1773251644097812500,12.1128125,0.119415283203125,-0.980255126953125,0.164215087890625
1773251644107849500,12.122849365234375,0.1237640380859375,-0.9785003662109375,0.166412353515625
1773251644117886500,12.132886474609375,0.117706298828125,-0.9767913818359375,0.16668701171875
1773251644127923500,12.14292333984375,0.12725830078125,-0.97698974609375,0.165679931640625
1773251644137960400,12.15296044921875,0.1369781494140625,-0.9755401611328125,0.1668548583984375
1773251644147997700,12.162997802734376,0.1103057861328125,-0.9707183837890625,0.1680755615234375
1773251644158034700,12.17303466796875,0.1130828857421875,-0.968902587890625,0.1700897216796875
1773251644168071400,12.183071533203124,0.12359619140625,-0.9681549072265625,0.167999267578125
1773251644178107400,12.193107421875,0.12591552734375,-0.9673614501953125,0.1640625
1773251644188144400,12.203144287109374,0.1241912841796875,-0.9709320068359375,0.1606292724609375
1773251644198181600,12.213181640625,0.12078857421875,-0.9747161865234375,0.161956787109375
1773251644208218600,12.223218505859375,0.126678466796875,-0.9778289794921875,0.1589813232421875
1773251644218255600,12.233255615234375,0.135406494140625,-0.9766998291015625,0.1607208251953125
1773251644228292400,12.243292236328125,0.1308441162109375,-0.978607177734375,0.16473388671875
1773251644238329300,12.253329345703126,0.12213134765625,-0.9783782958984375,0.1638946533203125
1773251644248366600,12.26336669921875,0.1171875,-0.9785614013671875,0.1605987548828125
1773251644258403600,12.273403564453124,0.120697021484375,-0.9798736572265625,0.1610107421875
1773251644268440600,12.283440673828125,0.1273956298828125,-0.9804534912109375,0.16070556640625
1773251644278477300,12.293477294921875,0.1281585693359375,-0.97906494140625,0.1604766845703125
1773251644288513500,12.303513427734375,0.1240692138671875,-0.9804534912109375,0.161712646484375
1773251644298550500,12.313550537109375,0.1292266845703125,-0.9813385009765625,0.1627655029296875
1773251644308587500,12.32358740234375,0.13250732421875,-0.9781341552734375,0.164276123046875
1773251644318624500,12.33362451171875,0.125579833984375,-0.9769287109375,0.1649169921875
1773251644328661500,12.34366162109375,0.1166229248046875,-0.976531982421875,0.161834716796875
1773251644338698800,12.35369873046875,0.1140899658203125,-0.97607421875,0.1598663330078125
1773251644348735500,12.363735595703124,0.1212921142578125,-0.9748687744140625,0.15545654296875
1773251644358772500,12.3737724609375,0.1287078857421875,-0.9728240966796875,0.1533966064453125
1773251644368809500,12.3838095703125,0.130279541015625,-0.970184326171875,0.1522674560546875
1773251644378846500,12.393846435546875,0.1288299560546875,-0.9693145751953125,0.152069091796875
1773251644388883700,12.4038837890625,0.1246490478515625,-0.97076416015625,0.154052734375
1773251644398920400,12.41392041015625,0.127105712890625,-0.973876953125,0.157012939453125
1773251644408956400,12.423956298828125,0.132568359375,-0.974945068359375,0.1580657958984375
1773251644418993400,12.433993408203126,0.134368896484375,-0.9740753173828125,0.161651611328125
1773251644429030400,12.444030517578126,0.1330718994140625,-0.976226806640625,0.1609649658203125
1773251644439067600,12.454067626953124,0.126953125,-0.975250244140625,0.161346435546875
1773251644449104600,12.464104736328125,0.124755859375,-0.9763031005859375,0.1575927734375
1773251644459141400,12.474141357421875,0.128387451171875,-0.974609375,0.15106201171875
1773251644469178400,12.484178466796875,0.133148193359375,-0.9706878662109375,0.148956298828125
1773251644479215600,12.494215576171875,0.1290740966796875,-0.97021484375,0.1516265869140625
1773251644489252600,12.504252685546875,0.1253814697265625,-0.9715576171875,0.1541748046875
1773251644499289600,12.51428955078125,0.12322998046875,-0.972686767578125,0.1588592529296875
1773251644509326300,12.524326416015626,0.1240997314453125,-0.971649169921875,0.1602020263671875
1773251644519362600,12.534362548828126,0.1234588623046875,-0.97467041015625,0.15936279296875
1773251644529399600,12.544399658203124,0.1236419677734375,-0.978240966796875,0.1591644287109375
1773251644539436500,12.5544365234375,0.12457275390625,-0.9798431396484375,0.15765380859375
1773251644549474300,12.564474365234375,0.122772216796875,-0.978973388671875,0.15521240234375
1773251644559511300,12.57451123046875,0.1288909912109375,-0.974273681640625,0.157318115234375
1773251644569548300,12.58454833984375,0.1327056884765625,-0.9705963134765625,0.157379150390625
1773251644579585300,12.594585205078126,0.128753662109375,-0.9715728759765625,0.1552581787109375
1773251644589622300,12.604622314453126,0.136627197265625,-0.97418212890625,0.156005859375
1773251644599659300,12.6146591796875,0.130462646484375,-0.9766387939453125,0.1557159423828125
1773251644609696500,12.624696533203124,0.086639404296875,-0.9764251708984375,0.159576416015625
1773251644619733200,12.634733154296875,0.0904693603515625,-0.9772796630859375,0.16180419921875
1773251644629769200,12.644769287109375,0.14227294921875,-0.9831695556640625,0.1627197265625
1773251644639806200,12.65480615234375,0.15020751953125,-0.983551025390625,0.1557464599609375
1773251644649843200,12.66484326171875,0.1266937255859375,-0.9762420654296875,0.15484619140625
1773251644659880200,12.674880126953125,0.1330718994140625,-0.9762420654296875,0.1573486328125
1773251644669917400,12.68491748046875,0.1190032958984375,-0.977142333984375,0.1577606201171875
1773251644679954200,12.6949541015625,0.115753173828125,-0.973419189453125,0.1604766845703125
1773251644689991200,12.7049912109375,0.1295166015625,-0.9759979248046875,0.1616668701171875
1773251644700028200,12.715028076171874,0.134918212890625,-0.982391357421875,0.1587677001953125
1773251644710065400,12.7250654296875,0.131011962890625,-0.9847259521484375,0.1544342041015625
1773251644720102400,12.735102294921875,0.1143341064453125,-0.9819488525390625,0.152618408203125
1773251644730139100,12.74513916015625,0.1086883544921875,-0.97943115234375,0.159759521484375
1773251644740176100,12.755176025390625,0.1230926513671875,-0.9771881103515625,0.1634521484375
1773251644750212000,12.765212158203125,0.13482666015625,-0.97821044921875,0.167144775390625
1773251644760249300,12.775249267578126,0.1343994140625,-0.9771728515625,0.163055419921875
1773251644770286300,12.785286376953126,0.1246185302734375,-0.9820404052734375,0.1580657958984375
1773251644780323300,12.7953232421875,0.11114501953125,-0.9832916259765625,0.155792236328125
1773251644790360300,12.8053603515625,0.1060791015625,-0.9830474853515625,0.155853271484375
1773251644800397000,12.81539697265625,0.1087799072265625,-0.980255126953125,0.1587982177734375
1773251644810434300,12.825434326171875,0.1146392822265625,-0.973175048828125,0.1611328125
1773251644820471300,12.83547119140625,0.1203460693359375,-0.9709320068359375,0.1634674072265625
1773251644830508300,12.84550830078125,0.1174774169921875,-0.9740447998046875,0.160430908203125
1773251644840545300,12.855545166015625,0.1130218505859375,-0.976318359375,0.1637725830078125
1773251644850582300,12.865582275390626,0.111846923828125,-0.98016357421875,0.1650543212890625
1773251644860618200,12.8756181640625,0.1156463623046875,-0.98321533203125,0.1634063720703125
1773251644870655200,12.8856552734375,0.117431640625,-0.9834747314453125,0.1653289794921875
1773251644880692200,12.895692138671874,0.11566162109375,-0.98126220703125,0.1647186279296875
1773251644890729200,12.905729248046875,0.105255126953125,-0.9790496826171875,0.1660003662109375
1773251644900766500,12.915766357421875,0.1165313720703125,-0.9767608642578125,0.16839599609375
1773251644910803200,12.92580322265625,0.1259002685546875,-0.9764251708984375,0.1693878173828125
1773251644920840200,12.935840087890625,0.098876953125,-0.9748992919921875,0.168975830078125
1773251644930877200,12.945877197265625,0.0972137451171875,-0.9736480712890625,0.1673431396484375
1773251644940914200,12.9559140625,0.109771728515625,-0.9745330810546875,0.1685791015625
1773251644950951400,12.965951416015624,0.1155548095703125,-0.9810333251953125,0.16900634765625
1773251644960988200,12.97598828125,0.110626220703125,-0.98394775390625,0.1661224365234375
1773251644971024400,12.9860244140625,0.105194091796875,-0.9821319580078125,0.17071533203125
1773251644981061000,12.99606103515625,0.11029052734375,-0.9801788330078125,0.1762542724609375
1773251644991098000,13.00609814453125,0.11651611328125,-0.977264404296875,0.172454833984375
1773251645001135400,13.01613525390625,0.118377685546875,-0.9772186279296875,0.16998291015625
1773251645011172400,13.02617236328125,0.1160430908203125,-0.974884033203125,0.1688690185546875
1773251645021209300,13.036209228515625,0.1086883544921875,-0.9731597900390625,0.167999267578125
1773251645031246000,13.04624609375,0.1032257080078125,-0.9763946533203125,0.1671905517578125
1773251645041283300,13.056283447265624,0.1038818359375,-0.98211669921875,0.1655120849609375
1773251645051320300,13.0663203125,0.1042938232421875,-0.98431396484375,0.1681060791015625
1773251645061357300,13.076357421875,0.1063385009765625,-0.981353759765625,0.1654510498046875
