time,seconds_elapsed,z,y,x
1773251418440855800,0.057855712890625,-0.49920654296875,-1.0058135986328125,-0.1714935302734375
1773251418450891800,0.067891845703125,-0.4960479736328125,-1.0374603271484375,-0.182647705078125
1773251418460928800,0.0779287109375,-0.49420166015625,-1.055816650390625,-0.15460205078125
1773251418470964700,0.08796484375,-0.498046875,-1.0505218505859375,-0.154205322265625
1773251418481000700,0.098000732421875,-0.5255279541015625,-1.0456390380859375,-0.1460113525390625
1773251418491037700,0.10803759765625,-0.561859130859375,-1.0406646728515625,-0.1125640869140625
1773251418501073700,0.11807373046875,-0.5945587158203125,-1.0218505859375,-0.04315185546875
1773251418511110700,0.128110595703125,-0.602203369140625,-1.0023040771484375,0.0194244384765625
1773251418521146600,0.138146728515625,-0.6001434326171875,-1.0088043212890625,0.0241546630859375
1773251418531182600,0.1481826171875,-0.593658447265625,-1.0431365966796875,-0.03759765625
1773251418541219600,0.158219482421875,-0.58917236328125,-1.089263916015625,-0.130889892578125
1773251418551255800,0.168255859375,-0.58538818359375,-1.1296844482421875,-0.2018585205078125
1773251418561292500,0.17829248046875,-0.591217041015625,-1.1522369384765625,-0.2408599853515625
1773251418571328500,0.18832861328125,-0.5898284912109375,-1.1487579345703125,-0.2511138916015625
1773251418581364700,0.19836474609375,-0.59185791015625,-1.113067626953125,-0.2182769775390625
1773251418591401500,0.2084013671875,-0.6390838623046875,-1.062774658203125,-0.161773681640625
1773251418601437700,0.218437744140625,-0.6900634765625,-1.0135345458984375,-0.116668701171875
1773251418611473700,0.2284736328125,-0.71893310546875,-0.9677276611328125,-0.087249755859375
1773251418621510700,0.2385107421875,-0.7305145263671875,-0.9226837158203125,-0.07666015625
1773251418631546600,0.248546630859375,-0.728546142578125,-0.865142822265625,-0.0667266845703125
1773251418641583600,0.25858349609375,-0.725372314453125,-0.803436279296875,-0.0623931884765625
1773251418651619600,0.26861962890625,-0.7303009033203125,-0.73370361328125,-0.0899658203125
1773251418661655600,0.278655517578125,-0.7358245849609375,-0.68109130859375,-0.1017303466796875
1773251418671692500,0.288692626953125,-0.7268218994140625,-0.6513671875,-0.109954833984375
1773251418681728500,0.298728515625,-0.69580078125,-0.64166259765625,-0.1373291015625
1773251418691765500,0.308765625,-0.6341094970703125,-0.6503753662109375,-0.17266845703125
1773251418701801500,0.318801513671875,-0.5751800537109375,-0.6495513916015625,-0.1773834228515625
1773251418711837400,0.32883740234375,-0.5521240234375,-0.6207733154296875,-0.1607513427734375
1773251418721874700,0.338874755859375,-0.5205230712890625,-0.5878143310546875,-0.1112213134765625
1773251418731910700,0.34891064453125,-0.485015869140625,-0.5832366943359375,-0.0451507568359375
1773251418741947600,0.35894775390625,-0.46087646484375,-0.6119842529296875,0.0092315673828125
1773251418751983600,0.368983642578125,-0.4472503662109375,-0.639892578125,-0.0054168701171875
1773251418762019600,0.37901953125,-0.416534423828125,-0.6378021240234375,-0.0579681396484375
1773251418772056600,0.389056640625,-0.3752288818359375,-0.6164703369140625,-0.088409423828125
1773251418782092500,0.399092529296875,-0.3505401611328125,-0.60064697265625,-0.0972137451171875
1773251418792129500,0.409129638671875,-0.3197784423828125,-0.6108856201171875,-0.0518646240234375
1773251418802165500,0.41916552734375,-0.2843475341796875,-0.661376953125,-0.00225830078125
1773251418812201700,0.42920166015625,-0.2768402099609375,-0.722137451171875,-0.023468017578125
1773251418822238700,0.43923876953125,-0.2353515625,-0.7725372314453125,-0.0561065673828125
1773251418832274700,0.449274658203125,-0.1707916259765625,-0.81103515625,-0.0530853271484375
1773251418842310700,0.459310546875,-0.1667327880859375,-0.81640625,-0.045379638671875
1773251418852347600,0.46934765625,-0.1951446533203125,-0.7808685302734375,-0.0023345947265625
1773251418862383600,0.479383544921875,-0.2503814697265625,-0.732208251953125,0.0815887451171875
1773251418872420600,0.489420654296875,-0.3176116943359375,-0.6820831298828125,0.158477783203125
1773251418882456600,0.49945654296875,-0.3526153564453125,-0.6434173583984375,0.235107421875
1773251418892492500,0.509492431640625,-0.35430908203125,-0.64361572265625,0.334228515625
1773251418902529800,0.51952978515625,-0.3235626220703125,-0.7001495361328125,0.376556396484375
1773251418912565800,0.529565673828125,-0.2808685302734375,-0.74200439453125,0.3096160888671875
1773251418922602800,0.539602783203125,-0.23358154296875,-0.7755584716796875,0.269622802734375
1773251418932638700,0.549638671875,-0.2177276611328125,-0.842315673828125,0.249176025390625
1773251418942674700,0.5596748046875,-0.2216339111328125,-0.9221343994140625,0.1856842041015625
1773251418952711700,0.569711669921875,-0.2329559326171875,-0.9472808837890625,0.15362548828125
1773251418962747600,0.57974755859375,-0.2156829833984375,-0.90887451171875,0.2039947509765625
1773251418972784600,0.58978466796875,-0.1641693115234375,-0.87640380859375,0.314971923828125
1773251418982820600,0.599820556640625,-0.124298095703125,-0.8936309814453125,0.404998779296875
1773251418992856800,0.60985693359375,-0.1102447509765625,-0.9034576416015625,0.390350341796875
1773251419002893600,0.6198935546875,-0.0963134765625,-0.92041015625,0.3351593017578125
1773251419012929800,0.6299296875,-0.0680999755859375,-0.916961669921875,0.2927398681640625
1773251419022965800,0.6399658203125,-0.040374755859375,-0.9080810546875,0.2517242431640625
1773251419033002500,0.65000244140625,-0.0007171630859375,-0.940521240234375,0.2032012939453125
1773251419043038700,0.660038818359375,-0.0088043212890625,-0.9785308837890625,0.195526123046875
1773251419053075500,0.670075439453125,-0.026885986328125,-1.0067596435546875,0.157928466796875
1773251419063111400,0.680111328125,0.0198822021484375,-1.045074462890625,0.08990478515625
1773251419073147600,0.690147705078125,0.0491485595703125,-1.0367584228515625,0.0524139404296875
1773251419083184600,0.7001845703125,-0.0151519775390625,-0.99420166015625,0.0095977783203125
1773251419093220600,0.710220703125,-0.0773468017578125,-0.9721221923828125,0.0057525634765625
1773251419103257600,0.720257568359375,-0.1060638427734375,-0.986083984375,0.1027679443359375
1773251419113293600,0.73029345703125,-0.0396728515625,-0.9996337890625,0.2471160888671875
1773251419123329500,0.74032958984375,0.0624542236328125,-1.0138702392578125,0.3615875244140625
1773251419133366500,0.750366455078125,0.08184814453125,-1.05157470703125,0.3629608154296875
1773251419143402500,0.760402587890625,0.04791259765625,-1.0860443115234375,0.223602294921875
1773251419153439500,0.770439453125,0.0286407470703125,-1.1097412109375,0.0466766357421875
1773251419163475500,0.780475341796875,0.0246429443359375,-1.1156158447265625,-0.111846923828125
1773251419173511700,0.79051171875,0.045745849609375,-1.101104736328125,-0.227386474609375
1773251419183548700,0.800548583984375,0.086456298828125,-1.09423828125,-0.28192138671875
1773251419193584600,0.810584716796875,0.0591583251953125,-1.0435791015625,-0.26495361328125
1773251419203621600,0.82062158203125,0.0525970458984375,-0.9907379150390625,-0.1815643310546875
1773251419213657600,0.83065771484375,0.0744781494140625,-1.0175323486328125,-0.04473876953125
1773251419223693600,0.840693603515625,0.0760650634765625,-1.062744140625,0.04742431640625
1773251419233730600,0.85073046875,0.066741943359375,-1.1681060791015625,0.02392578125
1773251419243766500,0.8607666015625,0.06512451171875,-1.242919921875,0.005157470703125
1773251419253802500,0.870802490234375,0.133544921875,-1.2016143798828125,-0.0239715576171875
1773251419263839700,0.88083984375,0.1410369873046875,-1.17535400390625,-0.090606689453125
1773251419273875700,0.890875732421875,0.0862274169921875,-1.1451263427734375,-0.146881103515625
1773251419283912700,0.90091259765625,0.076141357421875,-1.0677947998046875,-0.140777587890625
1773251419293948700,0.91094873046875,0.0829010009765625,-0.966278076171875,-0.09918212890625
1773251419303984600,0.920984619140625,0.01361083984375,-0.90283203125,-0.048187255859375
1773251419314021600,0.931021728515625,-0.0268096923828125,-0.8412628173828125,-0.0030364990234375
1773251419324057300,0.941057373046875,-0.021820068359375,-0.8460540771484375,-0.0011749267578125
1773251419334094300,0.95109423828125,-0.0467529296875,-0.9399261474609375,-0.0772705078125
1773251419344130300,0.96113037109375,-0.0466461181640625,-1.0350799560546875,-0.0894622802734375
1773251419354166300,0.971166259765625,-0.0176544189453125,-1.0565185546875,-0.0548858642578125
1773251419364203300,0.981203369140625,-0.0026092529296875,-1.0006866455078125,-0.0218505859375
1773251419374239200,0.9912392578125,-0.04754638671875,-0.928192138671875,-0.045623779296875
1773251419384276500,1.0012763671875,-0.055084228515625,-0.8791656494140625,-0.05889892578125
1773251419394312400,1.0113125,-0.0646514892578125,-0.903717041015625,-0.0440216064453125
1773251419404348400,1.021348388671875,-0.12237548828125,-0.9229888916015625,0.0336456298828125
1773251419414385400,1.031385498046875,-0.11663818359375,-0.9494781494140625,0.084564208984375
1773251419424421400,1.04142138671875,-0.0542449951171875,-0.994598388671875,0.07232666015625
1773251419434458400,1.051458251953125,0.039825439453125,-1.0272674560546875,0.033477783203125
1773251419444494300,1.061494384765625,0.1229400634765625,-0.9955902099609375,0.071563720703125
1773251419454530300,1.0715302734375,0.156402587890625,-1.02032470703125,0.1241302490234375
1773251419464567300,1.0815673828125,0.1193084716796875,-1.050689697265625,0.09295654296875
1773251419474603300,1.091603271484375,0.044158935546875,-1.1317291259765625,0.047271728515625
1773251419484639500,1.101639404296875,0.0014190673828125,-1.214508056640625,0.0158843994140625
1773251419494676200,1.11167626953125,0.0344390869140625,-1.231201171875,0.0435333251953125
1773251419504712400,1.12171240234375,0.0802764892578125,-1.195404052734375,0.0785369873046875
1773251419514749200,1.131749267578125,0.059600830078125,-1.1386871337890625,0.111663818359375
1773251419524785400,1.141785400390625,0.03680419921875,-1.109222412109375,0.1154632568359375
1773251419534821400,1.1518212890625,0.0274505615234375,-1.061279296875,0.1048431396484375
1773251419544858000,1.161858154296875,0.0111083984375,-1.0019683837890625,0.115478515625
1773251419554894300,1.171894287109375,-0.0048675537109375,-0.9367828369140625,0.1324310302734375
1773251419564931300,1.181931396484375,0.0146026611328125,-0.86614990234375,0.1231231689453125
1773251419574967300,1.19196728515625,0.00439453125,-0.8682098388671875,0.1045074462890625
1773251419585003300,1.202003173828125,-0.0439453125,-0.9277496337890625,0.1183013916015625
1773251419595040300,1.212040283203125,-0.0535888671875,-1.03875732421875,0.0534515380859375
1773251419605076200,1.222076171875,-0.0298004150390625,-1.0799713134765625,0.0172882080078125
1773251419615113200,1.23211328125,-0.0117950439453125,-1.05462646484375,0.02374267578125
1773251419625149200,1.242149169921875,-0.01104736328125,-1.0482330322265625,0.02099609375
1773251419635185200,1.25218505859375,-0.0048370361328125,-1.052215576171875,-0.0025787353515625
1773251419645222100,1.26222216796875,-0.02886962890625,-1.03582763671875,0.0154571533203125
1773251419655258000,1.272258056640625,-0.02862548828125,-1.00030517578125,0.043975830078125
1773251419665294300,1.28229443359375,-0.0227203369140625,-0.978759765625,0.027191162109375
1773251419675331300,1.292331298828125,-0.00396728515625,-0.9614410400390625,0.0391082763671875
1773251419685367300,1.3023671875,0.0145263671875,-0.9656524658203125,0.060394287109375
1773251419695404300,1.312404296875,-0.023101806640625,-1.012115478515625,0.04949951171875
1773251419705440300,1.322440185546875,-0.03814697265625,-1.0306854248046875,0.0238800048828125
1773251419715476200,1.332476318359375,-0.0533905029296875,-0.982147216796875,0.06439208984375
1773251419725513200,1.34251318359375,-0.0967559814453125,-0.9546051025390625,0.1019287109375
1773251419735549200,1.352549072265625,-0.1177215576171875,-0.9363555908203125,0.1230010986328125
1773251419745586400,1.36258642578125,-0.084075927734375,-0.9505767822265625,0.0967254638671875
1773251419755622400,1.372622314453125,-0.0347442626953125,-0.9518890380859375,0.069122314453125
1773251419765658400,1.382658447265625,0.0069122314453125,-0.9830322265625,0.013427734375
1773251419775695400,1.3926953125,0.052764892578125,-1.0404205322265625,-0.0141754150390625
1773251419785731300,1.4027314453125,0.077880859375,-1.0739288330078125,-0.0024871826171875
1773251419795768300,1.412768310546875,0.067474365234375,-1.0706787109375,-0.0183868408203125
1773251419805804300,1.42280419921875,0.066925048828125,-1.046661376953125,-0.0262298583984375
1773251419815840300,1.43284033203125,0.086151123046875,-1.0290069580078125,0.0054931640625
1773251419825877200,1.442877197265625,0.1052398681640625,-1.031280517578125,0.003021240234375
1773251419835913200,1.452913330078125,0.119842529296875,-1.025604248046875,0.0016937255859375
1773251419845949400,1.462949462890625,0.115570068359375,-1.0045166015625,0.037109375
1773251419855986400,1.472986328125,0.1034393310546875,-1.004302978515625,0.0246734619140625
1773251419866022400,1.4830224609375,0.10162353515625,-1.011505126953125,-0.0182952880859375
1773251419876059400,1.493059326171875,0.10833740234375,-0.98895263671875,-0.025604248046875
1773251419886095400,1.503095458984375,0.102508544921875,-0.9676971435546875,-0.019561767578125
1773251419896131300,1.51313134765625,0.0797119140625,-0.9191131591796875,-0.003753662109375
1773251419906168300,1.523168212890625,0.0536346435546875,-0.906982421875,-0.0224761962890625
1773251419916204300,1.533204345703125,0.0317840576171875,-0.9149322509765625,-0.048858642578125
1773251419926241300,1.5432412109375,0.0265350341796875,-0.9029388427734375,-0.0496673583984375
1773251419936277500,1.553277587890625,0.0123291015625,-0.9388427734375,-0.0065765380859375
1773251419946313500,1.5633134765625,-0.0057830810546875,-0.9828338623046875,0.054443359375
1773251419956350200,1.57335009765625,-0.00775146484375,-1.0361480712890625,0.081298828125
1773251419966386400,1.583386474609375,0.003814697265625,-1.07794189453125,0.10198974609375
1773251419976423200,1.593423095703125,0.032318115234375,-1.1114501953125,0.1164703369140625
1773251419986459100,1.603459228515625,0.0679931640625,-1.126739501953125,0.1258392333984375
1773251419996495400,1.613495361328125,0.0824737548828125,-1.1093597412109375,0.1236724853515625
1773251420006532000,1.623531982421875,0.0928955078125,-1.0706634521484375,0.0745697021484375
1773251420016568000,1.633568115234375,0.0847015380859375,-1.06463623046875,0.0092010498046875
1773251420026604300,1.643604248046875,0.07940673828125,-1.0724639892578125,0.00933837890625
1773251420036641300,1.653641357421875,0.064361572265625,-1.063873291015625,0.02252197265625
1773251420046677200,1.66367724609375,0.0213623046875,-1.03759765625,0.031951904296875
1773251420056714200,1.67371435546875,0.038787841796875,-1.0294342041015625,0.0205841064453125
1773251420066750200,1.683750244140625,0.0691375732421875,-1.0197296142578125,0.0220184326171875
1773251420076786200,1.6937861328125,0.089874267578125,-0.9977264404296875,0.0455780029296875
1773251420086823200,1.7038232421875,0.11810302734375,-0.983917236328125,0.065765380859375
1773251420096859100,1.713859130859375,0.1229095458984375,-0.9890289306640625,0.0716094970703125
1773251420106896400,1.723896484375,0.085357666015625,-0.9894256591796875,0.0843353271484375
1773251420116932400,1.733932373046875,0.053985595703125,-0.983673095703125,0.1051177978515625
1773251420126968300,1.74396826171875,0.097625732421875,-0.95758056640625,0.1062774658203125
1773251420137005300,1.75400537109375,0.1216278076171875,-0.9508209228515625,0.1002044677734375
1773251420147041300,1.764041259765625,0.149200439453125,-0.95001220703125,0.09130859375
1773251420157077200,1.7740771484375,0.2755584716796875,-0.937042236328125,0.0493927001953125
1773251420167114200,1.7841142578125,0.19091796875,-0.977783203125,0.0533599853515625
1773251420177150200,1.794150146484375,0.108489990234375,-0.98663330078125,0.0538787841796875
1773251420187187200,1.804187255859375,0.039794921875,-0.967559814453125,0.0633544921875
1773251420197223200,1.81422314453125,-0.01824951171875,-0.948638916015625,0.0861053466796875
1773251420207259100,1.824259033203125,-0.070404052734375,-0.9509429931640625,0.111358642578125
1773251420217296400,1.83429638671875,-0.1090087890625,-0.966552734375,0.133819580078125
1773251420227332400,1.844332275390625,-0.139892578125,-0.984619140625,0.1507720947265625
1773251420237369300,1.854369384765625,-0.171478271484375,-0.9914093017578125,0.166290283203125
1773251420247405300,1.8644052734375,-0.185760498046875,-0.9908447265625,0.17822265625
1773251420257441300,1.874441162109375,-0.1666259765625,-0.983154296875,0.1752777099609375
1773251420267478300,1.884478271484375,-0.1038665771484375,-0.9858856201171875,0.134002685546875
1773251420277514200,1.89451416015625,-0.01727294921875,-0.99212646484375,0.097320556640625
1773251420287551500,1.904551513671875,0.0518341064453125,-0.9932861328125,0.0856475830078125
1773251420297587500,1.91458740234375,0.0917205810546875,-0.992401123046875,0.0897369384765625
1773251420307623400,1.92462353515625,0.103912353515625,-0.989166259765625,0.0963592529296875
1773251420317660400,1.934660400390625,0.086334228515625,-0.99188232421875,0.098968505859375
1773251420327696100,1.944696044921875,0.05535888671875,-0.9917144775390625,0.0928497314453125
1773251420337732000,1.954732177734375,0.0294647216796875,-0.9900360107421875,0.0913848876953125
1773251420347769000,1.96476904296875,0.0114593505859375,-0.987152099609375,0.0937957763671875
1773251420357805000,1.97480517578125,0.0067138671875,-0.9844207763671875,0.1015777587890625
1773251420367842000,1.984842041015625,0.007171630859375,-0.98321533203125,0.1009674072265625
1773251420377878000,1.9948779296875,0.008636474609375,-0.982574462890625,0.0931396484375
1773251420387914000,2.0049140625,0.0074005126953125,-0.9830474853515625,0.0871429443359375
1773251420397951000,2.014950927734375,0.0042266845703125,-0.984405517578125,0.085540771484375
1773251420407987200,2.0249873046875,0.0072784423828125,-0.9871826171875,0.0880126953125
1773251420418024000,2.03502392578125,0.01654052734375,-0.9882049560546875,0.0931396484375
1773251420428060200,2.04506005859375,0.0281219482421875,-0.9892578125,0.0986175537109375
1773251420438096100,2.05509619140625,0.0378570556640625,-0.9881744384765625,0.1020965576171875
1773251420448132900,2.0651328125,0.041900634765625,-0.9916534423828125,0.102996826171875
1773251420458169000,2.075169189453125,0.0408935546875,-0.99420166015625,0.0970306396484375
1773251420468205800,2.085205810546875,0.0397796630859375,-0.995269775390625,0.090179443359375
1773251420478242000,2.095241943359375,0.034271240234375,-0.9953155517578125,0.08807373046875
1773251420488278000,2.105278076171875,0.0219573974609375,-0.99652099609375,0.0936279296875
1773251420498315000,2.11531494140625,0.0096588134765625,-1.000579833984375,0.096466064453125
1773251420508351000,2.12535107421875,0.001556396484375,-1.0014495849609375,0.0998687744140625
1773251420518387200,2.13538720703125,0.0004119873046875,-0.9990234375,0.1031341552734375
1773251420528424000,2.145423828125,-0.0048675537109375,-0.9981689453125,0.092864990234375
1773251420538460000,2.1554599609375,-0.0073089599609375,-0.9971771240234375,0.0823822021484375
1773251420548497000,2.165496826171875,-0.0090789794921875,-0.997100830078125,0.0763397216796875
1773251420558532900,2.175532958984375,-0.0108489990234375,-1.000274658203125,0.078643798828125
1773251420568568800,2.18556884765625,-0.012603759765625,-1.0015869140625,0.0848236083984375
1773251420578605800,2.195605712890625,-0.01397705078125,-1.0003814697265625,0.0933990478515625
1773251420588642000,2.20564208984375,-0.0172576904296875,-0.999969482421875,0.0973663330078125
1773251420598679000,2.215678955078125,-0.0119781494140625,-0.9993896484375,0.098114013671875
1773251420608715000,2.225715087890625,-0.0083465576171875,-0.99853515625,0.0923919677734375
1773251420618751000,2.2357509765625,-0.0027313232421875,-0.9973297119140625,0.0935821533203125
1773251420628788000,2.2457880859375,-0.0019683837890625,-0.99322509765625,0.0951690673828125
1773251420638824000,2.255823974609375,-0.0015106201171875,-0.991607666015625,0.093902587890625
1773251420648860000,2.26585986328125,-0.0036163330078125,-0.992279052734375,0.095245361328125
1773251420658897000,2.27589697265625,-0.0057525634765625,-0.9927520751953125,0.0974578857421875
1773251420668932900,2.285932861328125,-0.010833740234375,-0.991119384765625,0.1025390625
1773251420678970000,2.29597021484375,-0.013916015625,-0.9912109375,0.111297607421875
1773251420689006000,2.306006103515625,-0.017578125,-0.990447998046875,0.1155853271484375
1773251420699042000,2.3160419921875,-0.01580810546875,-0.9883270263671875,0.1146240234375
1773251420709079000,2.3260791015625,-0.01165771484375,-0.988983154296875,0.1071014404296875
1773251420719115000,2.336114990234375,-0.0045013427734375,-0.990203857421875,0.100372314453125
1773251420729152000,2.346152099609375,0.001495361328125,-0.9930572509765625,0.099853515625
1773251420739188000,2.35618798828125,0.005706787109375,-0.9935760498046875,0.102142333984375
1773251420749224000,2.366223876953125,0.00439453125,-0.9924163818359375,0.1031341552734375
1773251420759261000,2.376260986328125,0.00360107421875,-0.9959259033203125,0.103302001953125
1773251420769297000,2.386296875,0.0006103515625,-0.993377685546875,0.1013336181640625
1773251420779333000,2.3963330078125,-0.0044403076171875,-0.9908905029296875,0.1013946533203125
1773251420789370000,2.4063701171875,-0.0118408203125,-0.99310302734375,0.100616455078125
1773251420799406000,2.416406005859375,-0.0138397216796875,-0.9946136474609375,0.100006103515625
1773251420809443000,2.426443115234375,-0.0190887451171875,-0.993011474609375,0.09661865234375
1773251420819479000,2.43647900390625,-0.01947021484375,-0.9938812255859375,0.0933837890625
1773251420829515000,2.446514892578125,-0.0154876708984375,-0.99517822265625,0.0985260009765625
1773251420839552000,2.456552001953125,-0.0097198486328125,-0.9944915771484375,0.0979766845703125
1773251420849588000,2.466587890625,-0.0080718994140625,-0.992401123046875,0.095733642578125
1773251420859625200,2.476625244140625,-0.01116943359375,-0.9948272705078125,0.099609375
1773251420869661200,2.4866611328125,-0.0147705078125,-0.9944000244140625,0.1013946533203125
1773251420879697200,2.496697265625,-0.016387939453125,-0.992401123046875,0.1031036376953125
1773251420889734100,2.506734130859375,-0.015380859375,-0.99542236328125,0.10076904296875
1773251420899770000,2.51677001953125,-0.0112762451171875,-0.99530029296875,0.095184326171875
1773251420909806800,2.526806884765625,-0.007232666015625,-0.99420166015625,0.0972900390625
1773251420919843000,2.536843017578125,-0.005096435546875,-0.9930267333984375,0.0977630615234375
1773251420929879000,2.546879150390625,-0.01007080078125,-0.992919921875,0.0932159423828125
1773251420939915800,2.556915771484375,-0.0118255615234375,-0.991912841796875,0.0981292724609375
1773251420949952000,2.566951904296875,-0.014739990234375,-0.9874114990234375,0.1046295166015625
1773251420959988200,2.57698828125,-0.0186309814453125,-0.9941558837890625,0.10260009765625
1773251420970025000,2.58702490234375,-0.023895263671875,-0.99072265625,0.0926971435546875
1773251420980061000,2.59706103515625,-0.0249786376953125,-0.99139404296875,0.0922698974609375
1773251420990098000,2.607097900390625,-0.02301025390625,-0.988494873046875,0.09527587890625
1773251421000134000,2.6171337890625,-0.01751708984375,-0.98883056640625,0.09393310546875
1773251421010169900,2.627169921875,-0.006927490234375,-0.9918060302734375,0.09368896484375
1773251421020206800,2.637206787109375,0.0006561279296875,-0.994903564453125,0.0968170166015625
1773251421030242800,2.647242919921875,0.0053863525390625,-0.998565673828125,0.0985107421875
1773251421040280000,2.657280029296875,-0.00006103515625,-1.0017852783203125,0.0949249267578125
1773251421050316000,2.66731591796875,-0.0063018798828125,-1.0030059814453125,0.096160888671875
1773251421060352000,2.67735205078125,-0.01605224609375,-1.00341796875,0.09765625
1773251421070389000,2.687388916015625,-0.019775390625,-1.001434326171875,0.1002960205078125
1773251421080425000,2.697425048828125,-0.0214996337890625,-0.994476318359375,0.0968475341796875
1773251421090461000,2.7074609375,-0.0228118896484375,-0.9930877685546875,0.0938720703125
1773251421100498000,2.717497802734375,-0.027557373046875,-0.9907684326171875,0.0961456298828125
1773251421110534000,2.727533935546875,-0.030029296875,-0.989227294921875,0.0976409912109375
1773251421120571000,2.73757080078125,-0.024688720703125,-0.988555908203125,0.09912109375
1773251421130606800,2.74760693359375,-0.0123138427734375,-0.987945556640625,0.098846435546875
1773251421140643000,2.75764306640625,-0.0012359619140625,-0.990142822265625,0.098297119140625
1773251421150680000,2.76768017578125,0.002685546875,-0.9893798828125,0.1010589599609375
1773251421160716000,2.777716064453125,-0.000030517578125,-0.99029541015625,0.0993499755859375
1773251421170753000,2.7877529296875,-0.0102691650390625,-0.9904937744140625,0.0992279052734375
1773251421180789000,2.7977890625,-0.0178680419921875,-0.991424560546875,0.0977935791015625
1773251421190825000,2.807824951171875,-0.0191192626953125,-0.9913787841796875,0.0946502685546875
1773251421200862000,2.817862060546875,-0.0216827392578125,-0.9887847900390625,0.0891876220703125
1773251421210898000,2.82789794921875,-0.0234527587890625,-0.99407958984375,0.09161376953125
1773251421220934000,2.837933837890625,-0.023712158203125,-0.99151611328125,0.096466064453125
1773251421230971100,2.84797119140625,-0.021759033203125,-0.991424560546875,0.1009979248046875
1773251421241007000,2.858007080078125,-0.0189666748046875,-0.9926605224609375,0.0997772216796875
1773251421251044000,2.868044189453125,-0.0149078369140625,-0.9918212890625,0.0954132080078125
1773251421261080000,2.878080078125,-0.0160675048828125,-0.996185302734375,0.10589599609375
1773251421271116000,2.888115966796875,-0.014617919921875,-0.9915618896484375,0.1099090576171875
1773251421281153000,2.898153076171875,-0.0128326416015625,-0.9904022216796875,0.1002044677734375
1773251421291189000,2.90818896484375,-0.0113677978515625,-0.990875244140625,0.0987701416015625
1773251421301226000,2.91822607421875,-0.014984130859375,-0.9906005859375,0.0977630615234375
1773251421311262000,2.928261962890625,-0.0170745849609375,-0.99688720703125,0.097930908203125
1773251421321298000,2.9382978515625,-0.0141143798828125,-0.9952850341796875,0.1016387939453125
1773251421331335400,2.94833544921875,-0.01116943359375,-0.996246337890625,0.09979248046875
1773251421341371600,2.95837158203125,-0.01214599609375,-0.991943359375,0.0928497314453125
1773251421351408400,2.968408447265625,-0.0143585205078125,-1.0037384033203125,0.0890655517578125
1773251421361444400,2.9784443359375,-0.0139617919921875,-1.0062255859375,0.0901336669921875
1773251421371480600,2.98848046875,-0.0198974609375,-1.0033111572265625,0.0801544189453125
1773251421381517300,2.998517333984375,-0.03253173828125,-1.0035247802734375,0.07012939453125
1773251421391553300,3.00855322265625,-0.0398101806640625,-1.0070648193359375,0.079132080078125
1773251421401589500,3.018589599609375,-0.043060302734375,-1,0.08984375
1773251421411626500,3.02862646484375,-0.0370330810546875,-1.0001373291015625,0.092071533203125
1773251421421662500,3.038662353515625,-0.0238189697265625,-0.9981842041015625,0.0992431640625
1773251421431699500,3.048699462890625,-0.01019287109375,-0.991790771484375,0.1059722900390625
1773251421441735400,3.0587353515625,0.0016632080078125,-0.98590087890625,0.111572265625
1773251421451771400,3.068771484375,0.0088958740234375,-0.9879913330078125,0.1159515380859375
1773251421461808400,3.078808349609375,0.0166778564453125,-0.986480712890625,0.1180267333984375
1773251421471844400,3.08884423828125,0.019775390625,-0.9807586669921875,0.1185760498046875
1773251421481881600,3.098881591796875,0.01947021484375,-0.9825439453125,0.1188201904296875
1773251421491917600,3.10891748046875,0.0121002197265625,-0.98077392578125,0.11529541015625
1773251421501953500,3.11895361328125,0.002197265625,-0.97882080078125,0.111541748046875
1773251421511990500,3.128990478515625,-0.0019683837890625,-0.9774932861328125,0.109588623046875
1773251421522026500,3.139026611328125,0.00372314453125,-0.9755706787109375,0.1138763427734375
1773251421532062500,3.1490625,0.01287841796875,-0.9744110107421875,0.1109466552734375
1773251421542099500,3.159099365234375,0.021331787109375,-0.9747772216796875,0.1062469482421875
1773251421552135400,3.169135498046875,0.026336669921875,-0.9781951904296875,0.1043243408203125
1773251421562172400,3.17917236328125,0.024658203125,-0.9807586669921875,0.1022796630859375
1773251421572208400,3.18920849609375,0.018524169921875,-0.982635498046875,0.09954833984375
1773251421582244400,3.199244384765625,0.010101318359375,-0.9859466552734375,0.09893798828125
1773251421592281600,3.209281494140625,0.0045318603515625,-0.9886016845703125,0.0950927734375
1773251421602317600,3.219317626953125,0.002716064453125,-0.9963836669921875,0.0927886962890625
1773251421612354600,3.2293544921875,0.002349853515625,-0.99969482421875,0.0958709716796875
1773251421622390500,3.239390625,0.00396728515625,-0.9981689453125,0.0917205810546875
1773251421632426500,3.249426513671875,0.002899169921875,-0.9998626708984375,0.0904541015625
1773251421642463500,3.25946337890625,0.000762939453125,-0.9993896484375,0.0880584716796875
1773251421652499500,3.26949951171875,0.0009765625,-1.000732421875,0.087890625
1773251421662535400,3.279535400390625,-0.0024261474609375,-1.00018310546875,0.091949462890625
1773251421672572700,3.28957275390625,-0.002777099609375,-1.00006103515625,0.0897369384765625
1773251421682608600,3.299608642578125,-0.00360107421875,-0.9983062744140625,0.0901336669921875
1773251421692645600,3.309645751953125,-0.00152587890625,-0.9957275390625,0.0905303955078125
1773251421702681600,3.319681640625,0.0001220703125,-0.99566650390625,0.0913848876953125
1773251421712717600,3.329717529296875,-0.002716064453125,-0.9948883056640625,0.0942535400390625
1773251421722754600,3.339754638671875,-0.0059967041015625,-0.9933319091796875,0.091644287109375
1773251421732790500,3.34979052734375,-0.0107421875,-0.9925079345703125,0.088348388671875
1773251421742827500,3.35982763671875,-0.009765625,-0.992706298828125,0.0858001708984375
1773251421752863500,3.369863525390625,-0.003997802734375,-0.9937286376953125,0.08758544921875
1773251421762899500,3.3798994140625,0.0013885498046875,-0.993682861328125,0.09063720703125
1773251421772936700,3.389936767578125,0.0037384033203125,-0.9940032958984375,0.0951385498046875
1773251421782972700,3.39997265625,0.001251220703125,-0.9929962158203125,0.098785400390625
1773251421793008600,3.410008544921875,-0.006103515625,-0.992950439453125,0.0996246337890625
1773251421803045600,3.420045654296875,-0.0152587890625,-0.9915924072265625,0.1010894775390625
1773251421813081600,3.43008154296875,-0.0202789306640625,-0.9889678955078125,0.1013946533203125
1773251421823118300,3.440118408203125,-0.0170440673828125,-0.9842529296875,0.100738525390625
1773251421833154600,3.450154541015625,-0.01458740234375,-0.9825897216796875,0.098602294921875
1773251421843190500,3.4601904296875,-0.0112457275390625,-0.984039306640625,0.0939178466796875
1773251421853227500,3.4702275390625,-0.0061187744140625,-0.9874267578125,0.0944061279296875
1773251421863263500,3.480263427734375,0.0006866455078125,-0.9909820556640625,0.0961456298828125
1773251421873300500,3.490300537109375,0.0076904296875,-0.9948577880859375,0.10052490234375
1773251421883336400,3.50033642578125,0.0092315673828125,-0.9969940185546875,0.1080322265625
1773251421893372400,3.510372314453125,0.0023956298828125,-0.996917724609375,0.103759765625
1773251421903409400,3.520409423828125,-0.0066375732421875,-0.9963531494140625,0.1015777587890625
1773251421913445400,3.5304453125,-0.006439208984375,-0.9944915771484375,0.103485107421875
1773251421923482400,3.540482421875,-0.002197265625,-0.9918060302734375,0.1036376953125
1773251421933518300,3.550518310546875,0.0016021728515625,-0.9906158447265625,0.1003875732421875
1773251421943554300,3.56055419921875,-0.002166748046875,-0.9912567138671875,0.09881591796875
1773251421953591600,3.570591552734375,-0.009002685546875,-0.9936676025390625,0.100341796875
1773251421963627500,3.58062744140625,-0.0133056640625,-0.9947967529296875,0.101898193359375
1773251421973663500,3.59066357421875,-0.012115478515625,-0.9938507080078125,0.1041259765625
1773251421983700500,3.600700439453125,-0.0054931640625,-0.9929351806640625,0.1041717529296875
1773251421993736400,3.610736328125,-0.0009918212890625,-0.9912872314453125,0.0973052978515625
1773251422003773400,3.6207734375,-0.0009613037109375,-0.9905548095703125,0.0954132080078125
1773251422013809400,3.630809326171875,-0.002899169921875,-0.9882049560546875,0.094757080078125
1773251422023845400,3.640845458984375,-0.0072784423828125,-0.9896087646484375,0.096099853515625
1773251422033882600,3.650882568359375,-0.0113067626953125,-0.9907073974609375,0.096221923828125
1773251422043918600,3.660918701171875,-0.013763427734375,-0.9891510009765625,0.096343994140625
1773251422053954600,3.67095458984375,-0.0125274658203125,-0.990264892578125,0.0992279052734375
1773251422063991600,3.680991455078125,-0.0108642578125,-0.9889678955078125,0.09912109375
1773251422074027500,3.691027587890625,-0.012664794921875,-0.99072265625,0.09771728515625
1773251422084064500,3.701064453125,-0.0146331787109375,-0.992462158203125,0.0981597900390625
1773251422094100500,3.7111005859375,-0.0132904052734375,-0.9936370849609375,0.097442626953125
1773251422104136400,3.721136474609375,-0.0159149169921875,-0.9939727783203125,0.095916748046875
1773251422114173400,3.73117333984375,-0.0178070068359375,-0.994842529296875,0.09716796875
1773251422124209400,3.74120947265625,-0.024169921875,-0.9961090087890625,0.097503662109375
1773251422134246700,3.75124658203125,-0.0301666259765625,-0.9948272705078125,0.0987548828125
1773251422144282600,3.76128271484375,-0.0321044921875,-0.9954986572265625,0.0994720458984375
1773251422154318600,3.771318603515625,-0.031707763671875,-0.9959869384765625,0.09820556640625
1773251422164355600,3.78135546875,-0.02960205078125,-0.9973297119140625,0.096038818359375
1773251422174391600,3.7913916015625,-0.027740478515625,-0.997528076171875,0.097564697265625
1773251422184427500,3.801427490234375,-0.0245513916015625,-0.9975738525390625,0.0972137451171875
1773251422194464500,3.811464599609375,-0.0255279541015625,-0.998260498046875,0.0977630615234375
1773251422204500500,3.82150048828125,-0.02801513671875,-0.9972076416015625,0.0978240966796875
1773251422214537700,3.831537841796875,-0.030303955078125,-0.9950714111328125,0.09942626953125
1773251422224573700,3.84157373046875,-0.03106689453125,-0.9932403564453125,0.0969696044921875
1773251422234609700,3.851609619140625,-0.03125,-0.9907073974609375,0.091949462890625
1773251422244646700,3.861646728515625,-0.0322113037109375,-0.9903106689453125,0.092681884765625
1773251422254682600,3.8716826171875,-0.034393310546875,-0.9907379150390625,0.09161376953125
1773251422264719400,3.88171923828125,-0.033172607421875,-0.991241455078125,0.0906219482421875
1773251422274755600,3.891755615234375,-0.0308380126953125,-0.9925079345703125,0.0922698974609375
1773251422284791600,3.90179150390625,-0.0283050537109375,-0.9926910400390625,0.095977783203125
1773251422294828300,3.911828369140625,-0.0246124267578125,-0.9941864013671875,0.0961761474609375
1773251422304864500,3.921864501953125,-0.0210418701171875,-0.9943389892578125,0.09423828125
1773251422314901500,3.931901611328125,-0.022735595703125,-0.9960784912109375,0.091339111328125
1773251422324937200,3.941937255859375,-0.0255889892578125,-0.99774169921875,0.0916595458984375
1773251422334973200,3.95197314453125,-0.0277252197265625,-0.9986114501953125,0.09356689453125
1773251422345010000,3.962010009765625,-0.028656005859375,-0.9977264404296875,0.0963897705078125
1773251422355046100,3.972046142578125,-0.0281829833984375,-0.998016357421875,0.0984649658203125
1773251422365082000,3.98208203125,-0.02325439453125,-0.996795654296875,0.10003662109375
1773251422375119000,3.992119140625,-0.0202484130859375,-0.99566650390625,0.0978240966796875
1773251422385155300,4.0021552734375,-0.0179443359375,-0.99468994140625,0.09735107421875
1773251422395192000,4.012192138671875,-0.0183868408203125,-0.99224853515625,0.0935516357421875
1773251422405228000,4.02222802734375,-0.018463134765625,-0.993377685546875,0.0916290283203125
1773251422415264300,4.03226416015625,-0.020477294921875,-0.9920806884765625,0.09423828125
1773251422425301000,4.042301025390625,-0.023223876953125,-0.99383544921875,0.094818115234375
1773251422435337000,4.0523369140625,-0.0240020751953125,-0.993988037109375,0.096588134765625
1773251422445374000,4.0623740234375,-0.022064208984375,-0.993194580078125,0.099273681640625
1773251422455410200,4.07241015625,-0.017547607421875,-0.9934234619140625,0.10284423828125
1773251422465446100,4.082446044921875,-0.0181121826171875,-0.991424560546875,0.1023101806640625
1773251422475483100,4.092483154296875,-0.01751708984375,-0.9891510009765625,0.0994873046875
1773251422485519000,4.10251904296875,-0.0157012939453125,-0.990692138671875,0.099151611328125
1773251422495555000,4.11255517578125,-0.016082763671875,-0.990509033203125,0.0971527099609375
1773251422505592000,4.122592041015625,-0.0159759521484375,-0.9934844970703125,0.0993804931640625
1773251422515628000,4.1326279296875,-0.0178680419921875,-0.9934539794921875,0.099884033203125
1773251422525665000,4.1426650390625,-0.01806640625,-0.9932708740234375,0.100677490234375
1773251422535701000,4.152700927734375,-0.01751708984375,-0.9904327392578125,0.101837158203125
1773251422545737000,4.162737060546875,-0.0182952880859375,-0.98956298828125,0.099761962890625
1773251422555774200,4.172774169921875,-0.0194091796875,-0.99041748046875,0.0968780517578125
1773251422565810200,4.18281005859375,-0.0202178955078125,-0.9918060302734375,0.093048095703125
1773251422575847200,4.19284716796875,-0.0243072509765625,-0.99322509765625,0.0932159423828125
1773251422585883100,4.202883056640625,-0.02386474609375,-0.9944305419921875,0.096038818359375
1773251422595919000,4.212919189453125,-0.023712158203125,-0.9947662353515625,0.0981597900390625
1773251422605956000,4.2229560546875,-0.022247314453125,-0.9946746826171875,0.098876953125
1773251422615992000,4.232991943359375,-0.0213775634765625,-0.992767333984375,0.0990447998046875
1773251422626028000,4.243028076171875,-0.019073486328125,-0.9947662353515625,0.0979461669921875
1773251422636065300,4.253065185546875,-0.0195159912109375,-0.9942169189453125,0.094512939453125
1773251422646101200,4.263101318359375,-0.0233154296875,-0.99462890625,0.0923004150390625
1773251422656138200,4.27313818359375,-0.0276641845703125,-0.9942779541015625,0.092498779296875
1773251422666174200,4.28317431640625,-0.0273895263671875,-0.9948883056640625,0.09222412109375
1773251422676210200,4.293210205078125,-0.027008056640625,-0.9958343505859375,0.0929412841796875
1773251422686247200,4.3032470703125,-0.0255126953125,-0.9953765869140625,0.095367431640625
1773251422696283100,4.313283203125,-0.0225677490234375,-0.9972381591796875,0.0970306396484375
1773251422706320100,4.323320068359375,-0.0213165283203125,-0.997955322265625,0.1008453369140625
1773251422716356000,4.333356201171875,-0.0218658447265625,-0.9969024658203125,0.102783203125
1773251422726392000,4.34339208984375,-0.021148681640625,-0.99639892578125,0.102142333984375
1773251422736429300,4.35342919921875,-0.0211029052734375,-0.9962158203125,0.1055755615234375
1773251422746465300,4.36346533203125,-0.0205841064453125,-0.99566650390625,0.104461669921875
1773251422756501200,4.373501220703125,-0.0186920166015625,-0.9940338134765625,0.1025390625
1773251422766538200,4.383538330078125,-0.016204833984375,-0.9925689697265625,0.100982666015625
1773251422776574200,4.39357421875,-0.0161590576171875,-0.9906463623046875,0.097900390625
1773251422786611200,4.403611083984375,-0.0230560302734375,-0.990386962890625,0.0973052978515625
1773251422796647200,4.413647216796875,-0.0301971435546875,-0.993682861328125,0.0983428955078125
1773251422806683100,4.42368310546875,-0.039031982421875,-0.997833251953125,0.100067138671875
1773251422816720100,4.43372021484375,-0.041473388671875,-0.9996795654296875,0.0979766845703125
1773251422826756400,4.44375634765625,-0.0402069091796875,-0.9972686767578125,0.0966796875
1773251422836793000,4.45379296875,-0.03472900390625,-0.9955291748046875,0.095062255859375
1773251422846829000,4.4638291015625,-0.028594970703125,-0.9939117431640625,0.0956878662109375
1773251422856865300,4.473865234375,-0.0261383056640625,-0.9933929443359375,0.096954345703125
1773251422866902000,4.483902099609375,-0.026702880859375,-0.992401123046875,0.097015380859375
1773251422876938000,4.49393798828125,-0.0274658203125,-0.991790771484375,0.094940185546875
1773251422886974200,4.50397412109375,-0.0279083251953125,-0.99029541015625,0.0941925048828125
1773251422897011000,4.514010986328125,-0.02679443359375,-0.9902801513671875,0.0926513671875
1773251422907047000,4.524046875,-0.0281829833984375,-0.9891815185546875,0.0919647216796875
1773251422917084200,4.534084228515625,-0.0301513671875,-0.9906158447265625,0.0889739990234375
1773251422927120100,4.5441201171875,-0.0302734375,-0.9921722412109375,0.09130859375
1773251422937156000,4.554156005859375,-0.02899169921875,-0.9941558837890625,0.0963897705078125
1773251422947193000,4.564193115234375,-0.0290679931640625,-0.994903564453125,0.09735107421875
1773251422957229000,4.57422900390625,-0.03253173828125,-0.9952239990234375,0.0938873291015625
1773251422967266000,4.58426611328125,-0.037567138671875,-0.9935302734375,0.0922393798828125
1773251422977302000,4.594302001953125,-0.03778076171875,-0.9920196533203125,0.09393310546875
1773251422987338000,4.604337890625,-0.03448486328125,-0.99285888671875,0.095367431640625
1773251422997375000,4.614375,-0.0274200439453125,-0.9960479736328125,0.09539794921875
1773251423007411200,4.6244111328125,-0.024200439453125,-0.9963836669921875,0.0955963134765625
1773251423017447200,4.634447265625,-0.0221710205078125,-0.996185302734375,0.094482421875
1773251423027484200,4.644484130859375,-0.0266571044921875,-0.99517822265625,0.0933074951171875
1773251423037520100,4.65452001953125,-0.0298309326171875,-0.99530029296875,0.095367431640625
1773251423047557000,4.66455712890625,-0.0328369140625,-0.997711181640625,0.0956268310546875
1773251423057593000,4.674593017578125,-0.035369873046875,-0.997802734375,0.096923828125
1773251423067629000,4.684629150390625,-0.03857421875,-0.9960174560546875,0.0969390869140625
1773251423077666000,4.694666015625,-0.0401153564453125,-0.996826171875,0.09637451171875
1773251423087702000,4.704701904296875,-0.040740966796875,-0.9978179931640625,0.09661865234375
1773251423097739300,4.7147392578125,-0.0370330810546875,-0.9959869384765625,0.1001129150390625
1773251423107775200,4.724775146484375,-0.032135009765625,-0.994720458984375,0.102874755859375
1773251423117811200,4.734811279296875,-0.0301666259765625,-0.9941558837890625,0.1020965576171875
1773251423127848200,4.74484814453125,-0.030364990234375,-0.9932098388671875,0.0991973876953125
1773251423137884200,4.75488427734375,-0.02947998046875,-0.9898529052734375,0.103790283203125
1773251423147920100,4.764920166015625,-0.0285186767578125,-0.989013671875,0.102020263671875
1773251423157957000,4.77495703125,-0.0281524658203125,-0.989044189453125,0.1015472412109375
1773251423167993000,4.7849931640625,-0.03057861328125,-0.989471435546875,0.1015625
1773251423178030000,4.795030029296875,-0.030792236328125,-0.990203857421875,0.0994415283203125
1773251423188066300,4.80506640625,-0.032257080078125,-0.9920654296875,0.09912109375
1773251423198102300,4.815102294921875,-0.0341644287109375,-0.991851806640625,0.1027374267578125
1773251423208139300,4.82513916015625,-0.0353546142578125,-0.9936981201171875,0.101715087890625
1773251423218175200,4.83517529296875,-0.0338134765625,-0.9955902099609375,0.1036224365234375
1773251423228212200,4.845212158203125,-0.0316162109375,-0.993499755859375,0.104217529296875
1773251423238248200,4.855248291015625,-0.03167724609375,-0.9941558837890625,0.1035614013671875
1773251423248284200,4.8652841796875,-0.033416748046875,-0.992523193359375,0.105560302734375
1773251423258321200,4.875321044921875,-0.0349273681640625,-0.9931182861328125,0.1030120849609375
1773251423268357000,4.885357177734375,-0.0344085693359375,-0.9931488037109375,0.1024017333984375
1773251423278393000,4.89539306640625,-0.034210205078125,-0.99456787109375,0.099761962890625
1773251423288430300,4.905430419921875,-0.031890869140625,-0.995208740234375,0.0980987548828125
1773251423298466300,4.91546630859375,-0.030517578125,-0.995269775390625,0.09918212890625
1773251423308503000,4.9255029296875,-0.0326080322265625,-0.995086669921875,0.0991363525390625
1773251423318539300,4.935539306640625,-0.0364837646484375,-0.997467041015625,0.098297119140625
1773251423328575700,4.94557568359375,-0.0365447998046875,-0.9956817626953125,0.098968505859375
1773251423338612700,4.95561279296875,-0.0352630615234375,-0.994598388671875,0.101470947265625
1773251423348648700,4.965648681640625,-0.033660888671875,-0.9938812255859375,0.1018829345703125
1773251423358685700,4.975685791015625,-0.0307464599609375,-0.9940338134765625,0.1021881103515625
1773251423368721700,4.9857216796875,-0.0309906005859375,-0.9922943115234375,0.1046600341796875
1773251423378757600,4.995757568359375,-0.030853271484375,-0.9925537109375,0.105316162109375
1773251423388794600,5.005794677734375,-0.031890869140625,-0.991729736328125,0.10498046875
1773251423398830600,5.01583056640625,-0.03350830078125,-0.9921112060546875,0.105010986328125
1773251423408866600,5.025866455078125,-0.033172607421875,-0.9877166748046875,0.105072021484375
1773251423418903800,5.03590380859375,-0.0349578857421875,-0.9866485595703125,0.10528564453125
1773251423428939800,5.045939697265625,-0.036163330078125,-0.9875946044921875,0.104461669921875
1773251423438976800,5.055976806640625,-0.0363616943359375,-0.989166259765625,0.10498046875
1773251423449012700,5.0660126953125,-0.0366973876953125,-0.9894561767578125,0.106231689453125
1773251423459048700,5.076048583984375,-0.035919189453125,-0.9913330078125,0.1047210693359375
1773251423469085700,5.086085693359375,-0.03277587890625,-0.990478515625,0.1066741943359375
1773251423479121700,5.09612158203125,-0.0293121337890625,-0.990478515625,0.1098785400390625
1773251423489159000,5.106158935546875,-0.0287933349609375,-0.9914703369140625,0.1128997802734375
1773251423499195000,5.11619482421875,-0.0287322998046875,-0.9925537109375,0.1131744384765625
1773251423509230800,5.12623095703125,-0.0298614501953125,-0.9926300048828125,0.1126861572265625
1773251423519267800,5.136267822265625,-0.030487060546875,-0.9934539794921875,0.11248779296875
1773251423529303800,5.1463037109375,-0.034149169921875,-0.995880126953125,0.10894775390625
1773251423539339800,5.15633984375,-0.04241943359375,-0.998046875,0.1112823486328125
1773251423549376800,5.166376708984375,-0.0517425537109375,-0.9973602294921875,0.1142578125
1773251423559412700,5.176412841796875,-0.0569305419921875,-0.9928131103515625,0.1096649169921875
1773251423569449700,5.18644970703125,-0.055938720703125,-0.9891357421875,0.1089630126953125
1773251423579485700,5.196485595703125,-0.0467681884765625,-0.986572265625,0.110137939453125
1773251423589521700,5.206521728515625,-0.0333099365234375,-0.9879913330078125,0.10931396484375
1773251423599559000,5.216558837890625,-0.0188446044921875,-0.98968505859375,0.1090240478515625
1773251423609595000,5.226594970703125,-0.0094757080078125,-0.992279052734375,0.1109161376953125
1773251423619631900,5.2366318359375,-0.0073699951171875,-0.9980316162109375,0.1139068603515625
1773251423629667800,5.246667724609375,-0.0146026611328125,-0.9999847412109375,0.1131439208984375
1773251423639703800,5.256703857421875,-0.0298004150390625,-1.000091552734375,0.1075286865234375
1773251423649740800,5.26674072265625,-0.038848876953125,-0.99822998046875,0.1074066162109375
1773251423659776800,5.27677685546875,-0.03802490234375,-0.9891815185546875,0.100555419921875
1773251423669812700,5.286812744140625,-0.031768798828125,-0.995697021484375,0.104156494140625
1773251423679850000,5.29685009765625,-0.0302886962890625,-0.98724365234375,0.1069488525390625
1773251423689886000,5.306885986328125,-0.0340118408203125,-0.9869842529296875,0.0963287353515625
1773251423699922700,5.316922607421875,-0.04034423828125,-0.9878082275390625,0.0928192138671875
1773251423709959000,5.326958984375,-0.038177490234375,-0.9939727783203125,0.0995941162109375
1773251423719995000,5.336994873046875,-0.030242919921875,-0.9933929443359375,0.0968780517578125
1773251423730031600,5.347031494140625,-0.02349853515625,-0.995391845703125,0.0895538330078125
1773251423740067800,5.35706787109375,-0.017547607421875,-0.9981536865234375,0.0867919921875
1773251423750103800,5.367103759765625,-0.01824951171875,-0.9959869384765625,0.0894927978515625
1773251423760140500,5.377140625,-0.0218963623046875,-0.99169921875,0.0907440185546875
1773251423770176800,5.3871767578125,-0.0274658203125,-0.9938201904296875,0.0926666259765625
1773251423780213800,5.3972138671875,-0.0301666259765625,-0.9889678955078125,0.0980682373046875
1773251423790249700,5.407249755859375,-0.03057861328125,-0.9843597412109375,0.0957794189453125
1773251423800285700,5.41728564453125,-0.0291290283203125,-0.9833984375,0.09130859375
1773251423810322700,5.42732275390625,-0.024749755859375,-0.98272705078125,0.0872955322265625
1773251423820358700,5.437358642578125,-0.021636962890625,-0.9821929931640625,0.0885162353515625
1773251423830395600,5.447395751953125,-0.0224761962890625,-0.9816436767578125,0.0865325927734375
1773251423840431600,5.457431640625,-0.023101806640625,-0.988311767578125,0.086883544921875
1773251423850467600,5.467467529296875,-0.02606201171875,-0.983673095703125,0.088470458984375
1773251423860504800,5.4775048828125,-0.032562255859375,-0.98175048828125,0.0890350341796875
1773251423870540800,5.487540771484375,-0.034759521484375,-0.984100341796875,0.0927276611328125
1773251423880577800,5.497577880859375,-0.0341644287109375,-0.985260009765625,0.0953369140625
1773251423890613800,5.50761376953125,-0.0307769775390625,-0.9850311279296875,0.09967041015625
1773251423900649700,5.517649658203125,-0.0224456787109375,-0.9872589111328125,0.105133056640625
1773251423910686700,5.527686767578125,-0.0179443359375,-0.9901123046875,0.1049652099609375
1773251423920722700,5.53772265625,-0.01678466796875,-0.9940643310546875,0.1017913818359375
1773251423930758700,5.547758544921875,-0.0213623046875,-0.993133544921875,0.101806640625
1773251423940795600,5.557795654296875,-0.0264892578125,-0.9972381591796875,0.104766845703125
1773251423950831600,5.56783154296875,-0.029510498046875,-0.995330810546875,0.106170654296875
1773251423960868900,5.577868896484375,-0.0332183837890625,-0.9967193603515625,0.1055755615234375
1773251423970904800,5.58790478515625,-0.0334625244140625,-0.994110107421875,0.1057891845703125
1773251423980940800,5.59794091796875,-0.0359649658203125,-0.992523193359375,0.1036224365234375
1773251423990977800,5.607977783203125,-0.0337982177734375,-0.992095947265625,0.106536865234375
1773251424001013800,5.618013671875,-0.0311431884765625,-0.99169921875,0.1062774658203125
1773251424011050800,5.62805078125,-0.03155517578125,-0.9919586181640625,0.1046905517578125
1773251424021086700,5.638086669921875,-0.03228759765625,-0.9929351806640625,0.105224609375
1773251424031122700,5.648122802734375,-0.0305328369140625,-0.9934844970703125,0.1043701171875
1773251424041160000,5.658159912109375,-0.0309906005859375,-0.99359130859375,0.102874755859375
1773251424051196000,5.66819580078125,-0.0341949462890625,-0.995513916015625,0.1031951904296875
1773251424061231900,5.67823193359375,-0.0345001220703125,-0.994171142578125,0.1022796630859375
1773251424071268900,5.688268798828125,-0.037567138671875,-0.992950439453125,0.1013946533203125
1773251424081304800,5.698304931640625,-0.038604736328125,-0.9920196533203125,0.1014556884765625
1773251424091341800,5.708341796875,-0.0369873046875,-0.9916229248046875,0.1007232666015625
1773251424101377800,5.718377685546875,-0.036468505859375,-0.99102783203125,0.0971832275390625
1773251424111413800,5.728413818359375,-0.0339508056640625,-0.990631103515625,0.094390869140625
1773251424121450800,5.73845068359375,-0.034881591796875,-0.98919677734375,0.096160888671875
1773251424131486700,5.74848681640625,-0.036773681640625,-0.9914093017578125,0.0969390869140625
1773251424141523700,5.758523681640625,-0.03912353515625,-0.99346923828125,0.09771728515625
1773251424151560000,5.768559814453125,-0.038726806640625,-0.9940643310546875,0.1004638671875
1773251424161596000,5.778595947265625,-0.0381622314453125,-0.99664306640625,0.098358154296875
1773251424171632600,5.788632568359375,-0.036468505859375,-0.997222900390625,0.09637451171875
1773251424181668900,5.7986689453125,-0.033935546875,-0.996917724609375,0.0953521728515625
1773251424191704800,5.808704833984375,-0.0355987548828125,-0.9969482421875,0.093963623046875
1773251424201741600,5.818741455078125,-0.03857421875,-0.9981536865234375,0.09478759765625
1773251424211777800,5.82877783203125,-0.0435791015625,-0.9971771240234375,0.096710205078125
1773251424221814800,5.838814697265625,-0.0437469482421875,-0.9961700439453125,0.0958251953125
1773251424231850800,5.848850830078125,-0.0434417724609375,-0.994354248046875,0.095245361328125
1773251424241887000,5.858886962890625,-0.042449951171875,-0.9930572509765625,0.0955963134765625
1773251424251923700,5.868923828125,-0.0418701171875,-0.9915313720703125,0.09307861328125
1773251424261959700,5.878959716796875,-0.040283203125,-0.9904937744140625,0.0834808349609375
1773251424271996700,5.88899658203125,-0.040740966796875,-0.98931884765625,0.0746307373046875
1773251424282032600,5.89903271484375,-0.0404205322265625,-0.9946136474609375,0.078399658203125
1773251424292068600,5.909068603515625,-0.04315185546875,-0.995361328125,0.0869140625
1773251424302105600,5.919105712890625,-0.0466766357421875,-0.9957427978515625,0.08563232421875
1773251424312141600,5.9291416015625,-0.044189453125,-0.9965972900390625,0.0887908935546875
1773251424322177500,5.939177490234375,-0.042938232421875,-0.993560791015625,0.0940093994140625
1773251424332215000,5.949215087890625,-0.042755126953125,-0.9912261962890625,0.09674072265625
1773251424342251000,5.9592509765625,-0.0420379638671875,-0.989990234375,0.0957794189453125
1773251424352288300,5.969288330078125,-0.0406341552734375,-0.98968505859375,0.093231201171875
1773251424362324200,5.97932421875,-0.0380706787109375,-0.990325927734375,0.0934295654296875
1773251424372360200,5.989360107421875,-0.0367584228515625,-0.9910125732421875,0.092132568359375
1773251424382397200,5.999397216796875,-0.0359344482421875,-0.9924163818359375,0.0905914306640625
1773251424392433200,6.00943310546875,-0.0359344482421875,-0.99383544921875,0.08935546875
1773251424402470100,6.01947021484375,-0.0371856689453125,-0.99676513671875,0.08978271484375
1773251424412506000,6.029506103515625,-0.0422821044921875,-0.996185302734375,0.0884246826171875
1773251424422542000,6.0395419921875,-0.0478515625,-0.9962005615234375,0.0875396728515625
1773251424432579000,6.0495791015625,-0.0513458251953125,-0.9943389892578125,0.088226318359375
1773251424442615000,6.059614990234375,-0.049102783203125,-0.9922332763671875,0.0905609130859375
1773251424452651000,6.069651123046875,-0.045501708984375,-0.989593505859375,0.0902862548828125
1773251424462688300,6.079688232421875,-0.03997802734375,-0.989776611328125,0.086273193359375
1773251424472724200,6.08972412109375,-0.0352630615234375,-0.9933319091796875,0.086395263671875
1773251424482761200,6.09976123046875,-0.03369140625,-0.99359130859375,0.0852813720703125
1773251424492797200,6.109797119140625,-0.0293121337890625,-0.9974517822265625,0.0905609130859375
1773251424502833200,6.119833251953125,-0.0269622802734375,-0.9984283447265625,0.094207763671875
1773251424512870100,6.1298701171875,-0.0295867919921875,-0.9976959228515625,0.0929718017578125
1773251424522906000,6.139906005859375,-0.0353240966796875,-0.99847412109375,0.089508056640625
1773251424532943000,6.149943115234375,-0.0382843017578125,-0.9954681396484375,0.08941650390625
1773251424542979300,6.159979248046875,-0.034210205078125,-0.992889404296875,0.0844573974609375
1773251424553015300,6.170015380859375,-0.03375244140625,-0.99163818359375,0.0771026611328125
1773251424563052300,6.18005224609375,-0.0393829345703125,-0.993377685546875,0.07379150390625
1773251424573088300,6.190088134765625,-0.05059814453125,-0.994384765625,0.0787353515625
1773251424583124200,6.200124267578125,-0.058197021484375,-0.993377685546875,0.0890655517578125
1773251424593161200,6.2101611328125,-0.057098388671875,-0.9938507080078125,0.09686279296875
1773251424603197200,6.220197265625,-0.0459747314453125,-0.99310302734375,0.0975341796875
1773251424613234000,6.23023388671875,-0.0326385498046875,-0.9921875,0.0945587158203125
1773251424623270100,6.240270263671875,-0.023773193359375,-0.9919891357421875,0.0950469970703125
1773251424633306000,6.25030615234375,-0.0228118896484375,-0.9918365478515625,0.0908050537109375
1773251424643343000,6.260343017578125,-0.0283203125,-0.99169921875,0.086456298828125
1773251424653379300,6.27037939453125,-0.03717041015625,-0.991302490234375,0.08648681640625
1773251424663415300,6.280415283203125,-0.04296875,-0.9897918701171875,0.0889739990234375
1773251424673452000,6.2904521484375,-0.0434112548828125,-0.9926605224609375,0.0923614501953125
1773251424683488300,6.30048828125,-0.041107177734375,-0.993316650390625,0.0912933349609375
1773251424693525000,6.31052490234375,-0.0384368896484375,-0.99456787109375,0.0918731689453125
1773251424703561000,6.32056103515625,-0.03460693359375,-0.9933929443359375,0.0970001220703125
1773251424713597200,6.33059716796875,-0.031036376953125,-0.9930572509765625,0.0966644287109375
1773251424723634200,6.34063427734375,-0.03021240234375,-0.9924774169921875,0.0952606201171875
1773251424733670100,6.350670166015625,-0.0318145751953125,-0.99200439453125,0.0933380126953125
1773251424743707100,6.36070703125,-0.036407470703125,-0.9898223876953125,0.0923004150390625
1773251424753743000,6.3707431640625,-0.0449676513671875,-0.991485595703125,0.0908203125
1773251424763779000,6.380779052734375,-0.0516510009765625,-0.9930419921875,0.0900726318359375
1773251424773816000,6.390816162109375,-0.0501861572265625,-0.99359130859375,0.091766357421875
1773251424783852000,6.40085205078125,-0.042022705078125,-0.994232177734375,0.0920562744140625
1773251424793888000,6.410887939453125,-0.035491943359375,-0.994171142578125,0.0882568359375
1773251424803925000,6.420925048828125,-0.0302734375,-0.9926300048828125,0.0929412841796875
1773251424813961000,6.4309609375,-0.0293121337890625,-0.9937591552734375,0.0949859619140625
1773251424823998200,6.440998291015625,-0.029205322265625,-0.9944915771484375,0.0950775146484375
1773251424834034200,6.4510341796875,-0.0330810546875,-0.99468994140625,0.090484619140625
1773251424844070100,6.461070068359375,-0.0373687744140625,-0.994903564453125,0.0897369384765625
1773251424854107100,6.471107177734375,-0.0395050048828125,-0.9959259033203125,0.091766357421875
1773251424864143000,6.48114306640625,-0.041961669921875,-0.994903564453125,0.0907440185546875
1773251424874180000,6.49118017578125,-0.04364013671875,-0.9936676025390625,0.0903167724609375
1773251424884216000,6.501216064453125,-0.0430450439453125,-0.9938507080078125,0.0906524658203125
1773251424894252000,6.511251953125,-0.0433349609375,-0.9944305419921875,0.09100341796875
1773251424904289300,6.521289306640625,-0.04058837890625,-0.9931488037109375,0.093963623046875
1773251424914325200,6.5313251953125,-0.0378265380859375,-0.9925994873046875,0.09429931640625
1773251424924362200,6.5413623046875,-0.0351715087890625,-0.9936370849609375,0.100799560546875
1773251424934398200,6.551398193359375,-0.037109375,-0.994140625,0.1013336181640625
1773251424944434200,6.56143408203125,-0.035552978515625,-0.9915771484375,0.0980072021484375
1773251424954471200,6.57147119140625,-0.0348052978515625,-0.992279052734375,0.0973663330078125
1773251424964507100,6.581507080078125,-0.03704833984375,-0.995147705078125,0.0954132080078125
1773251424974543000,6.591543212890625,-0.037261962890625,-0.9924163818359375,0.0916748046875
1773251424984580000,6.601580078125,-0.0388031005859375,-0.9910125732421875,0.0904083251953125
1773251424994616000,6.611615966796875,-0.039764404296875,-0.9924163818359375,0.08984375
1773251425004653300,6.6216533203125,-0.0410003662109375,-0.994659423828125,0.0944976806640625
1773251425014689300,6.631689208984375,-0.0409698486328125,-0.9957427978515625,0.0924835205078125
1773251425024725200,6.641725341796875,-0.0391387939453125,-0.993133544921875,0.0929107666015625
1773251425034762200,6.65176220703125,-0.0357208251953125,-0.9941253662109375,0.0944061279296875
1773251425044798200,6.661798095703125,-0.0334930419921875,-0.9950103759765625,0.0950164794921875
1773251425054834200,6.671834228515625,-0.03253173828125,-0.995513916015625,0.0935516357421875
1773251425064871200,6.68187109375,-0.03363037109375,-0.99737548828125,0.092620849609375
1773251425074907100,6.6919072265625,-0.0357513427734375,-0.9965057373046875,0.0914306640625
1773251425084944100,6.701944091796875,-0.0354766845703125,-0.9958038330078125,0.0950469970703125
1773251425094980400,6.71198046875,-0.036651611328125,-0.996612548828125,0.095947265625
1773251425105016300,6.722016357421875,-0.0374908447265625,-0.997283935546875,0.0988922119140625
1773251425115053000,6.732052978515625,-0.037200927734375,-0.9967803955078125,0.0966949462890625
1773251425125089300,6.74208935546875,-0.0344085693359375,-0.99664306640625,0.0950164794921875
1773251425135126000,6.7521259765625,-0.02838134765625,-0.996246337890625,0.0934906005859375
1773251425145162000,6.762161865234375,-0.02593994140625,-0.9931488037109375,0.0941619873046875
1773251425155198200,6.7721982421875,-0.030975341796875,-0.991119384765625,0.090423583984375
1773251425165235000,6.78223486328125,-0.0372772216796875,-0.991485595703125,0.0920257568359375
1773251425175271000,6.79227099609375,-0.0447998046875,-0.991455078125,0.0931243896484375
1773251425185307100,6.80230712890625,-0.0493011474609375,-0.9902496337890625,0.094390869140625
1773251425195344100,6.81234423828125,-0.0489654541015625,-0.9869842529296875,0.097259521484375
1773251425205380000,6.822380126953125,-0.044281005859375,-0.98638916015625,0.095916748046875
1773251425215417000,6.8324169921875,-0.0349884033203125,-0.987823486328125,0.09564208984375
1773251425225453000,6.842453125,-0.029296875,-0.9873504638671875,0.0941162109375
1773251425235489000,6.852489013671875,-0.0284881591796875,-0.9876861572265625,0.090057373046875
1773251425245526000,6.862526123046875,-0.034393310546875,-0.9874725341796875,0.09014892578125
1773251425255562000,6.87256201171875,-0.0408172607421875,-0.9870758056640625,0.0899505615234375
1773251425265599000,6.882598876953125,-0.042999267578125,-0.9877166748046875,0.0917205810546875
1773251425275635200,6.89263525390625,-0.0411529541015625,-0.9886627197265625,0.0928192138671875
1773251425285671200,6.902671142578125,-0.0395965576171875,-0.991058349609375,0.0940399169921875
1773251425295708200,6.912708251953125,-0.0385284423828125,-0.9935150146484375,0.091705322265625
1773251425305744100,6.922744140625,-0.0409698486328125,-0.993804931640625,0.0915679931640625
1773251425315780000,6.932780029296875,-0.04302978515625,-0.9937286376953125,0.09564208984375
1773251425325817000,6.942817138671875,-0.0443572998046875,-0.9942169189453125,0.09759521484375
1773251425335852800,6.952852783203125,-0.045318603515625,-0.9960479736328125,0.0936126708984375
1773251425345889800,6.962889892578125,-0.045867919921875,-0.9967498779296875,0.09283447265625
1773251425355926000,6.972926025390625,-0.0483551025390625,-0.9969635009765625,0.094757080078125
1773251425365962000,6.9829619140625,-0.0504302978515625,-0.996185302734375,0.09368896484375
1773251425375999000,6.9929990234375,-0.0482330322265625,-0.9956512451171875,0.0933685302734375
1773251425386035000,7.003034912109375,-0.0455322265625,-0.992919921875,0.094940185546875
1773251425396072000,7.013072021484375,-0.043060302734375,-0.9926910400390625,0.0936737060546875
1773251425406108000,7.02310791015625,-0.0436248779296875,-0.99310302734375,0.095428466796875
1773251425416144000,7.033143798828125,-0.0431671142578125,-0.994140625,0.094818115234375
1773251425426180900,7.043180908203125,-0.0406494140625,-0.996856689453125,0.0936431884765625
1773251425436216800,7.053216796875,-0.036865234375,-0.999664306640625,0.096954345703125
1773251425446252800,7.063252685546875,-0.0375518798828125,-0.9983673095703125,0.096710205078125
1773251425456290000,7.0732900390625,-0.0383758544921875,-0.9935150146484375,0.098297119140625
1773251425466326000,7.083325927734375,-0.037750244140625,-0.991180419921875,0.0988922119140625
1773251425476363000,7.093363037109375,-0.037994384765625,-0.990081787109375,0.09808349609375
1773251425486399000,7.10339892578125,-0.03936767578125,-0.985321044921875,0.094757080078125
1773251425496435000,7.11343505859375,-0.040985107421875,-0.9842681884765625,0.091339111328125
1773251425506472000,7.123471923828125,-0.042816162109375,-0.9883575439453125,0.0956878662109375
1773251425516508000,7.1335078125,-0.0511627197265625,-0.9896392822265625,0.093780517578125
1773251425526544000,7.1435439453125,-0.0531768798828125,-0.993011474609375,0.0941009521484375
1773251425536580900,7.153580810546875,-0.0504913330078125,-0.992584228515625,0.0969390869140625
1773251425546617000,7.1636171875,-0.0447845458984375,-0.99169921875,0.095733642578125
1773251425556654000,7.173654052734375,-0.04119873046875,-0.99078369140625,0.0937347412109375
1773251425566690000,7.18368994140625,-0.041534423828125,-0.9912261962890625,0.093475341796875
1773251425576726000,7.19372607421875,-0.0418548583984375,-0.9925689697265625,0.0926666259765625
1773251425586763000,7.203762939453125,-0.043670654296875,-0.9909820556640625,0.0935516357421875
1773251425596799000,7.213799072265625,-0.04541015625,-0.9916839599609375,0.092376708984375
1773251425606836000,7.2238359375,-0.0449676513671875,-0.9915771484375,0.0922088623046875
1773251425616872000,7.233871826171875,-0.04510498046875,-0.9931182861328125,0.09527587890625
1773251425626908000,7.243907958984375,-0.046295166015625,-0.993438720703125,0.095916748046875
1773251425636945000,7.25394482421875,-0.0479278564453125,-0.9924468994140625,0.0970916748046875
1773251425646981000,7.263981201171875,-0.0485076904296875,-0.9933929443359375,0.0983428955078125
1773251425657017900,7.274017822265625,-0.047943115234375,-0.993865966796875,0.0982208251953125
1773251425667053800,7.2840537109375,-0.047943115234375,-0.9942779541015625,0.0959014892578125
1773251425677090000,7.294090087890625,-0.0524444580078125,-0.9919586181640625,0.095428466796875
1773251425687126800,7.304126708984375,-0.0550689697265625,-0.98992919921875,0.0941314697265625
1773251425697162800,7.314162841796875,-0.055633544921875,-0.9903717041015625,0.0948333740234375
1773251425707199000,7.324198974609375,-0.0505218505859375,-0.9925537109375,0.0988922119140625
1773251425717235700,7.334235595703125,-0.045806884765625,-0.9925079345703125,0.0994415283203125
1773251425727272000,7.34427197265625,-0.0439910888671875,-0.9946136474609375,0.100341796875
1773251425737309000,7.354308837890625,-0.0444793701171875,-0.99468994140625,0.1013946533203125
1773251425747345000,7.364344970703125,-0.0479888916015625,-0.9948272705078125,0.1019439697265625
1773251425757380900,7.374380859375,-0.0496978759765625,-0.9948577880859375,0.1009979248046875
1773251425767417900,7.38441796875,-0.048675537109375,-0.9934844970703125,0.1017913818359375
1773251425777453800,7.394453857421875,-0.0491485595703125,-0.9935150146484375,0.101287841796875
1773251425787489800,7.40448974609375,-0.0526275634765625,-0.9924468994140625,0.101287841796875
1773251425797526800,7.41452685546875,-0.05426025390625,-0.9934539794921875,0.099151611328125
1773251425807562800,7.424562744140625,-0.0551605224609375,-0.9947509765625,0.09844970703125
1773251425817600000,7.43460009765625,-0.050872802734375,-0.9924774169921875,0.0986785888671875
1773251425827636000,7.444635986328125,-0.0486602783203125,-0.9923553466796875,0.0988616943359375
1773251425837672000,7.454671875,-0.04620361328125,-0.9922332763671875,0.097930908203125
1773251425847709000,7.464708984375,-0.047698974609375,-0.992767333984375,0.09820556640625
1773251425857745000,7.474744873046875,-0.048583984375,-0.9925537109375,0.09869384765625
1773251425867782000,7.484781982421875,-0.0498809814453125,-0.991851806640625,0.09808349609375
1773251425877817900,7.49481787109375,-0.046539306640625,-0.99212646484375,0.0973358154296875
1773251425887853800,7.504853759765625,-0.047149658203125,-0.990966796875,0.0960540771484375
1773251425897890800,7.514890869140625,-0.0455169677734375,-0.9918365478515625,0.0958709716796875
1773251425907927000,7.524927001953125,-0.0454864501953125,-0.99334716796875,0.0963287353515625
1773251425917963000,7.534962890625,-0.0481719970703125,-0.9946441650390625,0.0960235595703125
1773251425928000000,7.545,-0.04791259765625,-0.994140625,0.09320068359375
1773251425938036000,7.555035888671875,-0.047332763671875,-0.9936676025390625,0.0935211181640625
1773251425948073000,7.565072998046875,-0.04730224609375,-0.9936981201171875,0.0943145751953125
1773251425958109000,7.57510888671875,-0.0483551025390625,-0.994110107421875,0.093109130859375
1773251425968145000,7.585144775390625,-0.0473785400390625,-0.994598388671875,0.0969390869140625
1773251425978182000,7.595181884765625,-0.044464111328125,-0.9930877685546875,0.0964508056640625
1773251425988217900,7.6052177734375,-0.04241943359375,-0.991943359375,0.0942535400390625
1773251425998255000,7.615255126953125,-0.04510498046875,-0.99371337890625,0.0940399169921875
1773251426008291000,7.625291015625,-0.0442047119140625,-0.992767333984375,0.0931396484375
1773251426018327000,7.6353271484375,-0.0444793701171875,-0.9937896728515625,0.093963623046875
1773251426028364000,7.645364013671875,-0.0450286865234375,-0.994354248046875,0.094635009765625
1773251426038400000,7.65539990234375,-0.0464630126953125,-0.9940338134765625,0.0944671630859375
1773251426048436000,7.66543603515625,-0.0458831787109375,-0.99200439453125,0.095855712890625
1773251426058473000,7.675472900390625,-0.0447540283203125,-0.9934844970703125,0.0966339111328125
1773251426068509000,7.685509033203125,-0.040985107421875,-0.9927215576171875,0.09326171875
1773251426078546000,7.6955458984375,-0.039459228515625,-0.9912567138671875,0.095489501953125
1773251426088582000,7.705581787109375,-0.040557861328125,-0.99072265625,0.0959625244140625
1773251426098618000,7.7156181640625,-0.04290771484375,-0.9900665283203125,0.09576416015625
1773251426108654800,7.72565478515625,-0.0460052490234375,-0.9915771484375,0.0944671630859375
1773251426118691000,7.735691162109375,-0.0451812744140625,-0.99322509765625,0.0949859619140625
1773251426128727800,7.745727783203125,-0.0406646728515625,-0.9933624267578125,0.0947723388671875
1773251426138764000,7.755763916015625,-0.039459228515625,-0.993927001953125,0.0955963134765625
1773251426148800000,7.765800048828125,-0.03802490234375,-0.9919586181640625,0.0966949462890625
1773251426158836700,7.775836669921875,-0.0369873046875,-0.991119384765625,0.09637451171875
1773251426168873000,7.785873046875,-0.0372161865234375,-0.992523193359375,0.0978546142578125
1773251426178909000,7.795908935546875,-0.0384979248046875,-0.9915008544921875,0.097991943359375
1773251426188946000,7.80594580078125,-0.041351318359375,-0.990997314453125,0.0993804931640625
1773251426198982000,7.81598193359375,-0.0430755615234375,-0.99298095703125,0.0996246337890625
1773251426209019000,7.826018798828125,-0.0448150634765625,-0.9915313720703125,0.0977935791015625
1773251426219054800,7.836054931640625,-0.0443572998046875,-0.9924468994140625,0.095550537109375
1773251426229090800,7.8460908203125,-0.0401458740234375,-0.99200439453125,0.095367431640625
1773251426239127800,7.8561279296875,-0.0367584228515625,-0.990966796875,0.095733642578125
1773251426249163800,7.866163818359375,-0.035369873046875,-0.9911346435546875,0.096710205078125
1773251426259200800,7.87620068359375,-0.037139892578125,-0.9902801513671875,0.0970611572265625
1773251426269236700,7.88623681640625,-0.0399932861328125,-0.9940948486328125,0.0947418212890625
1773251426279273000,7.89627294921875,-0.0434722900390625,-0.9930572509765625,0.097900390625
1773251426289310000,7.90631005859375,-0.048431396484375,-0.994476318359375,0.1007843017578125
1773251426299346000,7.916345947265625,-0.053466796875,-0.9935455322265625,0.098480224609375
1773251426309382000,7.9263818359375,-0.0526885986328125,-0.992767333984375,0.095184326171875
1773251426319419000,7.9364189453125,-0.046783447265625,-0.9945831298828125,0.0960693359375
1773251426329454300,7.946454345703125,-0.0390777587890625,-0.9923095703125,0.0958099365234375
1773251426339491300,7.9564912109375,-0.03680419921875,-0.9929046630859375,0.0982513427734375
1773251426349527300,7.96652734375,-0.0379486083984375,-0.9952239990234375,0.0987396240234375
1773251426359563300,7.976563232421875,-0.0416107177734375,-0.9968414306640625,0.0971832275390625
1773251426369600500,7.9866005859375,-0.0446319580078125,-0.999114990234375,0.0999603271484375
1773251426379636500,7.996636474609375,-0.045318603515625,-1.0005035400390625,0.10113525390625
1773251426389672400,8.00667236328125,-0.04522705078125,-0.9981689453125,0.1038818359375
1773251426399709400,8.01670947265625,-0.0403594970703125,-0.9961395263671875,0.1060028076171875
1773251426409745400,8.026745361328125,-0.0364227294921875,-0.994354248046875,0.10565185546875
1773251426419782400,8.036782470703125,-0.0330963134765625,-0.990081787109375,0.1032867431640625
1773251426429818400,8.046818359375,-0.0340576171875,-0.9924468994140625,0.102447509765625
1773251426439854300,8.056854248046875,-0.0399322509765625,-0.993896484375,0.1016693115234375
1773251426449891300,8.066891357421875,-0.049041748046875,-0.994384765625,0.1037139892578125
1773251426459927300,8.07692724609375,-0.05474853515625,-0.993316650390625,0.1051788330078125
1773251426469964500,8.086964599609376,-0.0535430908203125,-0.9926605224609375,0.102569580078125
1773251426480000500,8.09700048828125,-0.047576904296875,-0.990081787109375,0.1038970947265625
1773251426490036500,8.107036376953126,-0.0375518798828125,-0.9881591796875,0.100860595703125
1773251426500073500,8.117073486328126,-0.0303955078125,-0.987274169921875,0.0992279052734375
1773251426510109400,8.127109375,-0.027191162109375,-0.98687744140625,0.099212646484375
1773251426520145400,8.1371455078125,-0.030731201171875,-0.9869537353515625,0.0983123779296875
1773251426530182400,8.147182373046874,-0.03466796875,-0.98760986328125,0.09710693359375
1773251426540218400,8.15721826171875,-0.0411224365234375,-0.98919677734375,0.095123291015625
1773251426550255600,8.167255615234374,-0.043609619140625,-0.989532470703125,0.0965576171875
1773251426560291600,8.17729150390625,-0.0433197021484375,-0.99261474609375,0.096649169921875
1773251426570327600,8.18732763671875,-0.0443572998046875,-0.9933624267578125,0.0987701416015625
1773251426580364500,8.197364501953125,-0.0424041748046875,-0.9934539794921875,0.0984649658203125
1773251426590400500,8.207400390625,-0.0388031005859375,-0.99285888671875,0.09722900390625
1773251426600437500,8.2174375,-0.0405731201171875,-0.991668701171875,0.0956878662109375
1773251426610473500,8.227473388671875,-0.0451507568359375,-0.992889404296875,0.0946197509765625
1773251426620509400,8.237509521484375,-0.0518035888671875,-0.9944305419921875,0.093292236328125
1773251426630546400,8.24754638671875,-0.050567626953125,-0.9943695068359375,0.096038818359375
1773251426640582400,8.25758251953125,-0.0463714599609375,-0.99169921875,0.096649169921875
1773251426650618400,8.267618408203125,-0.0418701171875,-0.993255615234375,0.0960845947265625
1773251426660655600,8.277655517578125,-0.0378265380859375,-0.9936676025390625,0.098846435546875
1773251426670691600,8.287691650390625,-0.03521728515625,-0.9949798583984375,0.096923828125
1773251426680728300,8.297728271484376,-0.0362091064453125,-0.99505615234375,0.09698486328125
1773251426690764500,8.3077646484375,-0.0401611328125,-0.99420166015625,0.0977325439453125
1773251426700800500,8.317800537109376,-0.044708251953125,-0.993682861328125,0.0995330810546875
1773251426710837200,8.327837158203126,-0.0483551025390625,-0.9937286376953125,0.097320556640625
1773251426720873500,8.33787353515625,-0.0489654541015625,-0.9932098388671875,0.097442626953125
1773251426730910200,8.34791015625,-0.0500640869140625,-0.9937744140625,0.0985565185546875
1773251426740946400,8.357946533203124,-0.0461883544921875,-0.99285888671875,0.100006103515625
1773251426750982400,8.367982421875,-0.04290771484375,-0.993804931640625,0.097381591796875
1773251426761019400,8.378019287109375,-0.0391082763671875,-0.9923095703125,0.0963592529296875
1773251426771055400,8.388055419921875,-0.039794921875,-0.9910888671875,0.0983734130859375
1773251426781091300,8.39809130859375,-0.043731689453125,-0.9903106689453125,0.0992889404296875
1773251426791128300,8.40812841796875,-0.0457611083984375,-0.9928131103515625,0.0993499755859375
1773251426801164300,8.418164306640625,-0.0461883544921875,-0.9939727783203125,0.097381591796875
1773251426811201300,8.428201171875,-0.0460662841796875,-0.9936981201171875,0.0970001220703125
1773251426821237200,8.4382373046875,-0.0459136962890625,-0.9948883056640625,0.0997314453125
1773251426831273200,8.448273193359375,-0.046356201171875,-0.9934844970703125,0.1001129150390625
1773251426841310500,8.458310546875,-0.048614501953125,-0.9935760498046875,0.098663330078125
1773251426851346400,8.468346435546875,-0.0495452880859375,-0.9937744140625,0.0984954833984375
1773251426861383400,8.478383544921876,-0.0487060546875,-0.99176025390625,0.0959014892578125
1773251426871419400,8.48841943359375,-0.0508880615234375,-0.9918365478515625,0.0973663330078125
1773251426881455400,8.498455322265626,-0.0489959716796875,-0.991973876953125,0.099334716796875
1773251426891492400,8.508492431640626,-0.049652099609375,-0.9922027587890625,0.09979248046875
1773251426901528300,8.5185283203125,-0.0508575439453125,-0.9945068359375,0.099700927734375
1773251426911564300,8.528564208984376,-0.048370361328125,-0.9936370849609375,0.1001739501953125
1773251426921601500,8.5386015625,-0.047607421875,-0.9932403564453125,0.10211181640625
1773251426931637500,8.548637451171874,-0.0475921630859375,-0.993743896484375,0.0972900390625
1773251426941674500,8.558674560546875,-0.047698974609375,-0.99420166015625,0.099761962890625
1773251426951710500,8.56871044921875,-0.0470123291015625,-0.9952239990234375,0.100982666015625
1773251426961746400,8.578746337890625,-0.0484161376953125,-0.9926300048828125,0.0997467041015625
1773251426971783400,8.588783447265625,-0.0484619140625,-0.9936676025390625,0.1007537841796875
1773251426981819400,8.5988193359375,-0.0470428466796875,-0.995361328125,0.10040283203125
1773251426991856400,8.6088564453125,-0.045501708984375,-0.9923095703125,0.100860595703125
1773251427001892400,8.618892333984375,-0.0447540283203125,-0.99359130859375,0.1019287109375
1773251427011928300,8.62892822265625,-0.0450592041015625,-0.9959564208984375,0.1017913818359375
1773251427021965600,8.638965576171875,-0.0450286865234375,-0.99371337890625,0.1020355224609375
1773251427032001500,8.64900146484375,-0.046356201171875,-0.994598388671875,0.1021881103515625
1773251427042037500,8.65903759765625,-0.0477294921875,-0.9938507080078125,0.101837158203125
1773251427052074500,8.669074462890626,-0.04681396484375,-0.9915924072265625,0.0997772216796875
1773251427062110500,8.6791103515625,-0.0448455810546875,-0.9920654296875,0.0981903076171875
1773251427072147500,8.6891474609375,-0.042327880859375,-0.992919921875,0.0999298095703125
1773251427082183400,8.699183349609376,-0.03936767578125,-0.9908905029296875,0.0975341796875
1773251427092219400,8.709219482421876,-0.037261962890625,-0.991668701171875,0.0972747802734375
1773251427102256600,8.719256591796874,-0.0363006591796875,-0.9930877685546875,0.099945068359375
1773251427112292600,8.729292724609374,-0.037078857421875,-0.993621826171875,0.1014556884765625
1773251427122328600,8.73932861328125,-0.0404205322265625,-0.9926910400390625,0.1002044677734375
1773251427132365600,8.749365478515625,-0.0419921875,-0.9913330078125,0.100982666015625
1773251427142401500,8.759401611328125,-0.04449462890625,-0.9888458251953125,0.1020660400390625
1773251427152438500,8.7694384765625,-0.042724609375,-0.988311767578125,0.0989532470703125
1773251427162474500,8.779474609375,-0.0360870361328125,-0.9886474609375,0.0983123779296875
1773251427172510500,8.789510498046875,-0.033477783203125,-0.9878387451171875,0.0965576171875
1773251427182547500,8.79954736328125,-0.029144287109375,-0.9880218505859375,0.097381591796875
1773251427192583400,8.80958349609375,-0.029998779296875,-0.9892730712890625,0.0985870361328125
1773251427202620400,8.819620361328125,-0.031219482421875,-0.99200439453125,0.0953369140625
1773251427212656400,8.829656494140625,-0.032073974609375,-0.9931488037109375,0.0981292724609375
1773251427222692600,8.839692626953125,-0.0372161865234375,-0.9916839599609375,0.0976409912109375
1773251427232729300,8.849729248046875,-0.0467071533203125,-0.9896697998046875,0.09649658203125
1773251427242765300,8.859765380859375,-0.056060791015625,-0.9898529052734375,0.0958404541015625
1773251427252801500,8.869801513671876,-0.057159423828125,-0.9874725341796875,0.0986175537109375
1773251427262838300,8.87983837890625,-0.0540008544921875,-0.98406982421875,0.101837158203125
1773251427272874200,8.889874267578126,-0.0436248779296875,-0.9863739013671875,0.0978851318359375
1773251427282911200,8.8999111328125,-0.0347900390625,-0.9880523681640625,0.0988616943359375
1773251427292947500,8.909947509765624,-0.025238037109375,-0.9907684326171875,0.1025390625
1773251427302983400,8.9199833984375,-0.0225372314453125,-0.9944915771484375,0.1058807373046875
1773251427313020400,8.9300205078125,-0.0287322998046875,-0.9980316162109375,0.101043701171875
1773251427323056400,8.940056396484374,-0.039154052734375,-0.9970855712890625,0.09814453125
1773251427333093000,8.950093017578125,-0.0515289306640625,-0.99554443359375,0.0986328125
1773251427343129000,8.960129150390625,-0.0552520751953125,-0.9934234619140625,0.0995635986328125
1773251427353165000,8.9701650390625,-0.0512542724609375,-0.9884185791015625,0.096435546875
1773251427363202000,8.9802021484375,-0.0455780029296875,-0.987579345703125,0.095733642578125
1773251427373238000,8.990238037109375,-0.0446014404296875,-0.9889984130859375,0.0951385498046875
1773251427383274000,9.00027392578125,-0.047271728515625,-0.98779296875,0.0940704345703125
1773251427393311000,9.01031103515625,-0.0462799072265625,-0.98980712890625,0.098907470703125
1773251427403347000,9.020346923828125,-0.039794921875,-0.991241455078125,0.10009765625
1773251427413384200,9.03038427734375,-0.033447265625,-0.993988037109375,0.0977020263671875
1773251427423420200,9.040420166015625,-0.028900146484375,-0.993377685546875,0.0952911376953125
1773251427433456000,9.0504560546875,-0.0314178466796875,-0.99212646484375,0.095184326171875
1773251427443493000,9.0604931640625,-0.0400543212890625,-0.991668701171875,0.09368896484375
1773251427453529000,9.070529052734376,-0.0466156005859375,-0.9903411865234375,0.0919036865234375
1773251427463566000,9.080566162109376,-0.0492706298828125,-0.9891510009765625,0.0941925048828125
1773251427473602000,9.09060205078125,-0.049072265625,-0.9892578125,0.093048095703125
1773251427483638000,9.100637939453126,-0.0442047119140625,-0.9886474609375,0.0927276611328125
1773251427493675300,9.11067529296875,-0.0377044677734375,-0.9903411865234375,0.0933380126953125
1773251427503711200,9.120711181640624,-0.035797119140625,-0.98968505859375,0.0947265625
1773251427513747200,9.130747314453124,-0.0415802001953125,-0.9903717041015625,0.0958099365234375
1773251427523784200,9.1407841796875,-0.046783447265625,-0.9899139404296875,0.095672607421875
1773251427533820200,9.150820068359375,-0.0481109619140625,-0.9901275634765625,0.0948486328125
1773251427543857200,9.160857177734375,-0.052154541015625,-0.987945556640625,0.095733642578125
1773251427553893000,9.17089306640625,-0.0572052001953125,-0.987060546875,0.0952911376953125
1773251427563929000,9.18092919921875,-0.0562896728515625,-0.9891204833984375,0.0951690673828125
1773251427573966000,9.190966064453125,-0.0494842529296875,-0.9906768798828125,0.0975799560546875
1773251427584002000,9.201001953125,-0.0404205322265625,-0.9922332763671875,0.1009368896484375
1773251427594039300,9.211039306640625,-0.0333251953125,-0.994171142578125,0.09796142578125
1773251427604075300,9.2210751953125,-0.032684326171875,-0.9960174560546875,0.0969696044921875
1773251427614111200,9.231111328125,-0.039398193359375,-0.9969940185546875,0.096771240234375
1773251427624148200,9.241148193359376,-0.0458221435546875,-0.9991912841796875,0.09814453125
1773251427634184200,9.25118408203125,-0.051055908203125,-0.997833251953125,0.1000518798828125
1773251427644220200,9.26122021484375,-0.0536346435546875,-0.9969329833984375,0.0992279052734375
1773251427654257200,9.271257080078126,-0.0521697998046875,-0.99578857421875,0.0992279052734375
1773251427664293000,9.281293212890626,-0.0491790771484375,-0.9960479736328125,0.1008758544921875
1773251427674330000,9.291330078125,-0.04693603515625,-0.9953765869140625,0.10107421875
1773251427684366300,9.301366455078124,-0.0448455810546875,-0.993377685546875,0.099884033203125
1773251427694402300,9.31140234375,-0.041107177734375,-0.9925689697265625,0.101531982421875
1773251427704439000,9.32143896484375,-0.0404205322265625,-0.9913482666015625,0.1009521484375
1773251427714475300,9.331475341796875,-0.0436859130859375,-0.9902191162109375,0.099517822265625
1773251427724511200,9.34151123046875,-0.0428466796875,-0.9900360107421875,0.0973663330078125
1773251427734548000,9.3515478515625,-0.042938232421875,-0.9908905029296875,0.097808837890625
1773251427744584200,9.361584228515625,-0.04376220703125,-0.99066162109375,0.099609375
1773251427754621000,9.371620849609375,-0.042999267578125,-0.9891204833984375,0.097503662109375
1773251427764657000,9.381656982421875,-0.040008544921875,-0.9881134033203125,0.0970916748046875
1773251427774693000,9.391693115234375,-0.0397186279296875,-0.9867095947265625,0.10052490234375
1773251427784730000,9.401730224609375,-0.0408477783203125,-0.9856414794921875,0.09710693359375
1773251427794766000,9.41176611328125,-0.0424041748046875,-0.9874114990234375,0.0958099365234375
1773251427804803000,9.421802978515625,-0.042572021484375,-0.986419677734375,0.095977783203125
1773251427814839000,9.431839111328125,-0.044921875,-0.9867401123046875,0.09857177734375
1773251427824875000,9.441875,-0.044219970703125,-0.9882965087890625,0.100006103515625
1773251427834912000,9.451912109375,-0.0442352294921875,-0.9916839599609375,0.09796142578125
1773251427844948000,9.461947998046876,-0.044769287109375,-0.9915008544921875,0.1002044677734375
1773251427854985200,9.471985107421874,-0.0398712158203125,-0.9921417236328125,0.1047210693359375
1773251427865021200,9.482021240234374,-0.03668212890625,-0.990753173828125,0.0990447998046875
1773251427875057200,9.49205712890625,-0.0402374267578125,-0.991729736328125,0.099029541015625
1773251427885094100,9.50209423828125,-0.0429229736328125,-0.9932708740234375,0.1058502197265625
1773251427895130000,9.512130126953124,-0.04986572265625,-0.9934234619140625,0.1039581298828125
1773251427905166000,9.522166015625,-0.0552520751953125,-0.993988037109375,0.103302001953125
1773251427915203000,9.532203125,-0.05487060546875,-0.9943084716796875,0.1063995361328125
1773251427925239000,9.542239013671875,-0.0517578125,-0.9942169189453125,0.10565185546875
1773251427935276000,9.552276123046875,-0.0457611083984375,-0.9945220947265625,0.1038055419921875
1773251427945312000,9.56231201171875,-0.0413665771484375,-0.9944610595703125,0.1024932861328125
1773251427955348000,9.572347900390625,-0.0397796630859375,-0.9946136474609375,0.1036529541015625
1773251427965385200,9.58238525390625,-0.04449462890625,-0.9917755126953125,0.103424072265625
1773251427975421200,9.592421142578125,-0.0504150390625,-0.991241455078125,0.1018524169921875
1773251427985458200,9.602458251953125,-0.05560302734375,-0.991455078125,0.0998382568359375
1773251427995494100,9.612494140625,-0.0565948486328125,-0.9910430908203125,0.0995635986328125
1773251428005530000,9.622530029296875,-0.0531463623046875,-0.990203857421875,0.1006011962890625
1773251428015567000,9.632567138671876,-0.046844482421875,-0.98944091796875,0.1011199951171875
1773251428025603000,9.64260302734375,-0.043365478515625,-0.988128662109375,0.0999755859375
1773251428035639000,9.65263916015625,-0.04229736328125,-0.9873504638671875,0.1019439697265625
1773251428045676300,9.66267626953125,-0.0414886474609375,-0.9879608154296875,0.1018218994140625
1773251428055712300,9.672712158203124,-0.0414276123046875,-0.989593505859375,0.1026611328125
1773251428065749200,9.682749267578124,-0.0452880859375,-0.991546630859375,0.102691650390625
1773251428075785200,9.69278515625,-0.0522613525390625,-0.9926910400390625,0.09906005859375
1773251428085821200,9.7028212890625,-0.0604400634765625,-0.99346923828125,0.0994415283203125
1773251428095858200,9.712858154296875,-0.0621490478515625,-0.99505615234375,0.0969390869140625
1773251428105894100,9.72289404296875,-0.055999755859375,-0.9900360107421875,0.097747802734375
1773251428115930000,9.73293017578125,-0.052978515625,-0.989990234375,0.0973358154296875
1773251428125967000,9.742967041015625,-0.0518951416015625,-0.99310302734375,0.0928192138671875
1773251428136003000,9.753003173828125,-0.0519866943359375,-0.9932708740234375,0.095184326171875
1773251428146040300,9.763040283203125,-0.04998779296875,-0.9939727783203125,0.1024322509765625
1773251428156076300,9.773076171875,-0.05078125,-0.995880126953125,0.106109619140625
1773251428166112300,9.7831123046875,-0.0487823486328125,-0.9970550537109375,0.112884521484375
1773251428176149200,9.793149169921875,-0.0465240478515625,-0.994781494140625,0.116546630859375
1773251428186185200,9.803185302734375,-0.047637939453125,-0.99212646484375,0.1121063232421875
1773251428196222000,9.813221923828126,-0.051971435546875,-0.9892425537109375,0.109344482421875
1773251428206258200,9.823258056640626,-0.0499420166015625,-0.989166259765625,0.11199951171875
1773251428216294100,9.833294189453126,-0.0539398193359375,-0.9855194091796875,0.10687255859375
1773251428226331100,9.8433310546875,-0.059539794921875,-0.9866790771484375,0.102447509765625
1773251428236367000,9.8533671875,-0.0672149658203125,-0.9868011474609375,0.1050872802734375
1773251428246403300,9.8634033203125,-0.068634033203125,-0.9853515625,0.108856201171875
1773251428256440000,9.873440185546874,-0.064483642578125,-0.98541259765625,0.1100616455078125
1773251428266476000,9.88347607421875,-0.055755615234375,-0.986602783203125,0.1082916259765625
1773251428276513000,9.893512939453124,-0.0501708984375,-0.98779296875,0.105926513671875
1773251428286549000,9.903549072265625,-0.047393798828125,-0.989776611328125,0.1065521240234375
1773251428296585000,9.9135849609375,-0.0501251220703125,-0.9913482666015625,0.1078948974609375
1773251428306622000,9.9236220703125,-0.0535888671875,-0.9927520751953125,0.1070098876953125
1773251428316658000,9.933657958984375,-0.0565185546875,-0.9933319091796875,0.1094818115234375
1773251428326695200,9.943695068359375,-0.0587310791015625,-0.9951019287109375,0.10693359375
1773251428336731000,9.95373095703125,-0.0565643310546875,-0.991943359375,0.1074676513671875
1773251428346766800,9.963766845703125,-0.0546417236328125,-0.992706298828125,0.10302734375
1773251428356803800,9.973803955078125,-0.056549072265625,-0.992889404296875,0.1015777587890625
1773251428366839800,9.98383984375,-0.0589752197265625,-0.99334716796875,0.1000823974609375
1773251428376875800,9.993875732421875,-0.0617828369140625,-0.99188232421875,0.1018829345703125
1773251428386912800,10.003912841796875,-0.0634613037109375,-0.99468994140625,0.1028289794921875
1773251428396948700,10.01394873046875,-0.0613555908203125,-0.9931182861328125,0.1043853759765625
1773251428406986000,10.023986083984376,-0.0622100830078125,-0.993438720703125,0.1026153564453125
1773251428417022000,10.03402197265625,-0.064300537109375,-0.994476318359375,0.10345458984375
1773251428427058000,10.044057861328126,-0.063629150390625,-0.9909210205078125,0.101837158203125
1773251428437095000,10.054094970703124,-0.0609893798828125,-0.9913177490234375,0.1055450439453125
1773251428447131000,10.064130859375,-0.055694580078125,-0.993560791015625,0.1055908203125
1773251428457168000,10.07416796875,-0.0529937744140625,-0.9918365478515625,0.1033477783203125
1773251428467203800,10.084203857421874,-0.052703857421875,-0.9907379150390625,0.1042633056640625
1773251428477239800,10.09423974609375,-0.053680419921875,-0.990081787109375,0.105316162109375
1773251428487277000,10.104277099609375,-0.0558929443359375,-0.991729736328125,0.1027069091796875
1773251428497313000,10.11431298828125,-0.0594024658203125,-0.993377685546875,0.1016693115234375
1773251428507349000,10.124348876953125,-0.0629119873046875,-0.9932708740234375,0.102325439453125
1773251428517386000,10.134385986328125,-0.0613555908203125,-0.9944000244140625,0.10284423828125
1773251428527422000,10.144421875,-0.0617523193359375,-0.99285888671875,0.1049346923828125
1773251428537459000,10.154458984375,-0.06219482421875,-0.99237060546875,0.1057891845703125
1773251428547495000,10.164494873046875,-0.061492919921875,-0.9937591552734375,0.10400390625
1773251428557531000,10.17453076171875,-0.0609588623046875,-0.9932403564453125,0.105194091796875
1773251428567568000,10.18456787109375,-0.0600128173828125,-0.9937744140625,0.104278564453125
1773251428577603800,10.194603759765625,-0.059478759765625,-0.993865966796875,0.1038818359375
1773251428587641000,10.20464111328125,-0.0596771240234375,-0.991851806640625,0.1025848388671875
1773251428597677000,10.214677001953126,-0.0604095458984375,-0.993194580078125,0.10357666015625
1773251428607713000,10.224713134765626,-0.0626220703125,-0.9919891357421875,0.104278564453125
1773251428617750000,10.23475,-0.0623626708984375,-0.9918365478515625,0.1003570556640625
1773251428627786000,10.244785888671874,-0.0600433349609375,-0.9889984130859375,0.102203369140625
1773251428637822000,10.254822021484374,-0.0622711181640625,-0.990509033203125,0.1071319580078125
1773251428647859000,10.26485888671875,-0.0647430419921875,-0.9894561767578125,0.104827880859375
1773251428657895000,10.27489501953125,-0.0654296875,-0.9892425537109375,0.10223388671875
1773251428667932200,10.28493212890625,-0.0640106201171875,-0.9895477294921875,0.1026458740234375
1773251428677968100,10.294968017578125,-0.063690185546875,-0.989105224609375,0.102569580078125
1773251428688004000,10.305004150390625,-0.062957763671875,-0.98846435546875,0.10455322265625
1773251428698041000,10.315041015625,-0.06024169921875,-0.9882659912109375,0.106353759765625
1773251428708077000,10.3250771484375,-0.055511474609375,-0.988983154296875,0.1033172607421875
1773251428718113800,10.33511376953125,-0.0546875,-0.9895477294921875,0.1011810302734375
1773251428728150000,10.34514990234375,-0.05267333984375,-0.9907379150390625,0.0999755859375
1773251428738186000,10.35518603515625,-0.0511932373046875,-0.9909210205078125,0.1028594970703125
1773251428748222700,10.36522265625,-0.054840087890625,-0.99237060546875,0.1045074462890625
1773251428758259000,10.375259033203125,-0.0589599609375,-0.991668701171875,0.1026611328125
1773251428768295000,10.385294921875,-0.062255859375,-0.991668701171875,0.102783203125
1773251428778332000,10.395331787109376,-0.06121826171875,-0.99090576171875,0.10296630859375
1773251428788368000,10.405367919921876,-0.0627899169921875,-0.990936279296875,0.1002197265625
1773251428798404900,10.41540478515625,-0.0625457763671875,-0.9923095703125,0.103973388671875
1773251428808440800,10.42544091796875,-0.061737060546875,-0.9912261962890625,0.104705810546875
1773251428818476800,10.435476806640626,-0.0622711181640625,-0.9919281005859375,0.1024627685546875
1773251428828513800,10.445513671875,-0.066741943359375,-0.9941864013671875,0.0996856689453125
1773251428838549800,10.4555498046875,-0.0650177001953125,-0.991668701171875,0.1004638671875
1773251428848585700,10.465585693359374,-0.063751220703125,-0.9912872314453125,0.104888916015625
1773251428858623000,10.475623046875,-0.062896728515625,-0.9900360107421875,0.1065216064453125
1773251428868659000,10.485658935546875,-0.0600128173828125,-0.9911041259765625,0.1060791015625
1773251428878696000,10.495696044921875,-0.0604248046875,-0.9896087646484375,0.1056365966796875
1773251428888732000,10.50573193359375,-0.062774658203125,-0.9898681640625,0.1053924560546875
1773251428898768000,10.515767822265625,-0.066558837890625,-0.9920196533203125,0.1053314208984375
1773251428908804900,10.525804931640625,-0.07086181640625,-0.9931182861328125,0.10809326171875
1773251428918840800,10.5358408203125,-0.072265625,-0.9909210205078125,0.10797119140625
1773251428928877800,10.5458779296875,-0.068145751953125,-0.989471435546875,0.107574462890625
1773251428938913800,10.555913818359375,-0.0644378662109375,-0.9907684326171875,0.10809326171875
1773251428948949800,10.56594970703125,-0.06341552734375,-0.9910430908203125,0.108795166015625
1773251428958987000,10.575987060546876,-0.0628509521484375,-0.9933929443359375,0.1046295166015625
1773251428969023000,10.58602294921875,-0.0647125244140625,-0.99456787109375,0.10235595703125
1773251428979059000,10.596058837890626,-0.0666046142578125,-0.9933319091796875,0.1013031005859375
1773251428989096000,10.606095947265626,-0.06768798828125,-0.993804931640625,0.102783203125
1773251428999132000,10.6161318359375,-0.06396484375,-0.9912109375,0.103607177734375
1773251429009169000,10.6261689453125,-0.0618896484375,-0.988525390625,0.10394287109375
1773251429019204900,10.636204833984374,-0.0596466064453125,-0.98822021484375,0.1026458740234375
1773251429029240800,10.64624072265625,-0.0610504150390625,-0.9898529052734375,0.1019439697265625
1773251429039278000,10.656278076171875,-0.0601348876953125,-0.990447998046875,0.100982666015625
1773251429049314000,10.66631396484375,-0.0605316162109375,-0.9923553466796875,0.1031036376953125
1773251429059351000,10.67635107421875,-0.0602264404296875,-0.9977874755859375,0.1038665771484375
1773251429069387000,10.686386962890625,-0.05902099609375,-0.996337890625,0.1039886474609375
1773251429079423000,10.696423095703125,-0.0566253662109375,-0.9948577880859375,0.102081298828125
1773251429089460000,10.7064599609375,-0.05438232421875,-0.99298095703125,0.1027374267578125
1773251429099496000,10.716495849609375,-0.0534515380859375,-0.992279052734375,0.10198974609375
1773251429109532000,10.726531982421875,-0.0552825927734375,-0.988006591796875,0.1002655029296875
1773251429119569000,10.73656884765625,-0.060516357421875,-0.989288330078125,0.0969085693359375
1773251429129604900,10.74660498046875,-0.06573486328125,-0.990020751953125,0.0990753173828125
1773251429139642000,10.75664208984375,-0.0682220458984375,-0.990234375,0.105438232421875
1773251429149678000,10.766677978515625,-0.0724945068359375,-0.99237060546875,0.10748291015625
1773251429159714000,10.776714111328126,-0.0691070556640625,-0.992706298828125,0.101470947265625
1773251429169751000,10.7867509765625,-0.0629119873046875,-0.99273681640625,0.0999603271484375
1773251429179787000,10.796787109375,-0.0555572509765625,-0.9917449951171875,0.1001434326171875
1773251429189823700,10.80682373046875,-0.0533447265625,-0.99298095703125,0.1003570556640625
1773251429199860000,10.81685986328125,-0.05535888671875,-0.99127197265625,0.0992431640625
1773251429209896000,10.82689599609375,-0.059844970703125,-0.9901885986328125,0.1014404296875
1773251429219933000,10.836932861328124,-0.067474365234375,-0.989288330078125,0.0989837646484375
1773251429229969200,10.84696923828125,-0.0700225830078125,-0.99102783203125,0.0973052978515625
1773251429240005000,10.857005126953124,-0.0737457275390625,-0.992279052734375,0.1025238037109375
1773251429250041900,10.867041748046875,-0.0703582763671875,-0.9922637939453125,0.099517822265625
1773251429260078000,10.877078125,-0.0684356689453125,-0.990142822265625,0.099334716796875
1773251429270114800,10.88711474609375,-0.0649566650390625,-0.99041748046875,0.100189208984375
1773251429280150800,10.89715087890625,-0.06231689453125,-0.9910125732421875,0.100738525390625
1773251429290187000,10.90718701171875,-0.06201171875,-0.9907073974609375,0.09759521484375
1773251429300223700,10.9172236328125,-0.0648651123046875,-0.9900665283203125,0.0954132080078125
1773251429310259700,10.927259765625,-0.0686187744140625,-0.99200439453125,0.096954345703125
1773251429320297000,10.937296875,-0.0714874267578125,-0.988677978515625,0.1000518798828125
1773251429330333000,10.9473330078125,-0.069732666015625,-0.99090576171875,0.10101318359375
1773251429340369200,10.957369140625,-0.062744140625,-0.9893798828125,0.10205078125
1773251429350406100,10.96740625,-0.057464599609375,-0.9896697998046875,0.1017303466796875
1773251429360442000,10.977442138671876,-0.054046630859375,-0.9898529052734375,0.0998382568359375
1773251429370478000,10.98747802734375,-0.0564117431640625,-0.98968505859375,0.0991668701171875
1773251429380515000,10.99751513671875,-0.0613250732421875,-0.9925537109375,0.0959320068359375
1773251429390551000,11.007551025390624,-0.06512451171875,-0.993072509765625,0.09552001953125
1773251429400588000,11.017588134765624,-0.0650177001953125,-0.9945831298828125,0.10113525390625
1773251429410624000,11.0276240234375,-0.0653839111328125,-0.9972991943359375,0.101959228515625
1773251429420660000,11.037659912109374,-0.0655059814453125,-0.9966583251953125,0.101806640625
1773251429430697200,11.047697265625,-0.064697265625,-0.9954071044921875,0.10272216796875
1773251429440733200,11.057733154296875,-0.065704345703125,-0.9943084716796875,0.104217529296875
1773251429450770200,11.067770263671875,-0.0662384033203125,-0.99407958984375,0.1040191650390625
1773251429460806100,11.07780615234375,-0.064483642578125,-0.9925079345703125,0.1022491455078125
1773251429470842000,11.087842041015625,-0.063201904296875,-0.9918212890625,0.10198974609375
1773251429480879000,11.097879150390625,-0.062286376953125,-0.99407958984375,0.1009979248046875
1773251429490915000,11.1079150390625,-0.06439208984375,-0.992095947265625,0.09783935546875
1773251429500951000,11.117950927734375,-0.063751220703125,-0.99188232421875,0.098052978515625
1773251429510988300,11.12798828125,-0.0656585693359375,-0.991180419921875,0.1016693115234375
1773251429521024300,11.138024169921875,-0.0660552978515625,-0.989837646484375,0.1027374267578125
1773251429531061200,11.148061279296876,-0.0645599365234375,-0.9891510009765625,0.104278564453125
1773251429541097200,11.15809716796875,-0.0614471435546875,-0.9881439208984375,0.1050872802734375
1773251429551133200,11.16813330078125,-0.0634918212890625,-0.9905242919921875,0.106048583984375
1773251429561170200,11.178170166015626,-0.063751220703125,-0.99066162109375,0.1025238037109375
1773251429571206100,11.1882060546875,-0.0652313232421875,-0.99072265625,0.1026611328125
1773251429581243100,11.1982431640625,-0.0671539306640625,-0.990509033203125,0.10272216796875
1773251429591279000,11.208279052734374,-0.067840576171875,-0.9920806884765625,0.10552978515625
1773251429601315000,11.218315185546874,-0.0666046142578125,-0.9919586181640625,0.102508544921875
1773251429611352300,11.228352294921875,-0.0655364990234375,-0.9919586181640625,0.1055908203125
1773251429621388300,11.23838818359375,-0.064453125,-0.991973876953125,0.1033172607421875
1773251429631424300,11.24842431640625,-0.0624847412109375,-0.9927825927734375,0.1017913818359375
1773251429641461200,11.258461181640625,-0.0584869384765625,-0.99267578125,0.105743408203125
1773251429651497200,11.268497314453125,-0.0590362548828125,-0.99114990234375,0.1056365966796875
1773251429661534000,11.278533935546875,-0.061126708984375,-0.98944091796875,0.104736328125
1773251429671570200,11.288570068359375,-0.062225341796875,-0.9905242919921875,0.1039581298828125
1773251429681606100,11.298606201171875,-0.062652587890625,-0.99102783203125,0.102996826171875
1773251429691643100,11.30864306640625,-0.0625762939453125,-0.989105224609375,0.106292724609375
1773251429701679000,11.31867919921875,-0.0639495849609375,-0.9895477294921875,0.105712890625
1773251429711716000,11.328716064453126,-0.064300537109375,-0.9896240234375,0.1031646728515625
1773251429721752000,11.338751953125,-0.0632476806640625,-0.98876953125,0.10528564453125
1773251429731788000,11.3487880859375,-0.0616302490234375,-0.9891815185546875,0.1044921875
1773251429741825000,11.358824951171876,-0.060455322265625,-0.986114501953125,0.1054534912109375
1773251429751861000,11.368861083984376,-0.0598602294921875,-0.9884033203125,0.1031341552734375
1773251429761897000,11.37889697265625,-0.0591888427734375,-0.9889678955078125,0.1055450439453125
1773251429771934000,11.388933837890624,-0.0619354248046875,-0.988739013671875,0.1058807373046875
1773251429781970000,11.398969970703124,-0.062530517578125,-0.9863128662109375,0.1072235107421875
1773251429792007200,11.409007080078124,-0.0620269775390625,-0.987579345703125,0.110260009765625
1773251429802043100,11.419043212890625,-0.0653076171875,-0.98858642578125,0.10662841796875
1773251429812079000,11.4290791015625,-0.066619873046875,-0.989471435546875,0.1075286865234375
1773251429822116000,11.4391162109375,-0.066925048828125,-0.990753173828125,0.1079559326171875
1773251429832152000,11.449152099609375,-0.0676422119140625,-0.991668701171875,0.1087799072265625
1773251429842188000,11.45918798828125,-0.0654449462890625,-0.9912872314453125,0.10693359375
1773251429852225000,11.46922509765625,-0.0635833740234375,-0.9921112060546875,0.1114959716796875
1773251429862261000,11.479260986328125,-0.0602264404296875,-0.991729736328125,0.1087799072265625
1773251429872298200,11.48929833984375,-0.0606231689453125,-0.992645263671875,0.105865478515625
1773251429882334200,11.499334228515625,-0.0635223388671875,-0.9935302734375,0.1064910888671875
1773251429892370200,11.5093701171875,-0.0676727294921875,-0.9947052001953125,0.1068115234375
1773251429902407200,11.5194072265625,-0.073822021484375,-0.9955291748046875,0.1076812744140625
1773251429912443100,11.529443115234375,-0.0794677734375,-0.993194580078125,0.1082763671875
1773251429922480000,11.539480224609376,-0.07867431640625,-0.989898681640625,0.1090240478515625
1773251429932516000,11.54951611328125,-0.0741119384765625,-0.9879608154296875,0.1120758056640625
1773251429942552000,11.559552001953126,-0.0683135986328125,-0.9830169677734375,0.111358642578125
1773251429952589000,11.569589111328124,-0.060546875,-0.98602294921875,0.1092681884765625
1773251429962625000,11.579625,-0.0542755126953125,-0.988494873046875,0.1085205078125
1773251429972662300,11.589662353515624,-0.0527191162109375,-0.9887542724609375,0.1074066162109375
1773251429982698200,11.5996982421875,-0.0527496337890625,-0.9929962158203125,0.1103057861328125
1773251429992734200,11.609734130859374,-0.057708740234375,-0.9931640625,0.1092681884765625
1773251430002771200,11.619771240234375,-0.0662994384765625,-0.992706298828125,0.1060333251953125
1773251430012807200,11.62980712890625,-0.0701141357421875,-0.9920196533203125,0.10467529296875
1773251430022843100,11.639843017578125,-0.06915283203125,-0.98895263671875,0.105712890625
1773251430032880000,11.649880126953125,-0.0663299560546875,-0.9854278564453125,0.107086181640625
1773251430042916000,11.659916015625,-0.0677337646484375,-0.983642578125,0.106536865234375
1773251430052953300,11.669953369140625,-0.07574462890625,-0.985626220703125,0.10528564453125
1773251430062989300,11.6799892578125,-0.084136962890625,-0.986724853515625,0.104400634765625
1773251430073025300,11.690025390625,-0.086456298828125,-0.9879302978515625,0.1061248779296875
1773251430083062300,11.700062255859375,-0.0805206298828125,-0.9885101318359375,0.107635498046875
1773251430093098200,11.71009814453125,-0.07452392578125,-0.9906158447265625,0.1066131591796875
1773251430103134200,11.72013427734375,-0.069244384765625,-0.992340087890625,0.1071624755859375
1773251430113171200,11.730171142578126,-0.0683441162109375,-0.9932098388671875,0.1095733642578125
1773251430123207200,11.740207275390626,-0.0739898681640625,-0.9966888427734375,0.1100921630859375
1773251430133244200,11.750244140625,-0.0776824951171875,-0.995269775390625,0.1110992431640625
1773251430143280000,11.760280029296876,-0.0793914794921875,-0.9943695068359375,0.1109619140625
1773251430153316000,11.770316162109374,-0.0778656005859375,-0.9954071044921875,0.111328125
1773251430163353000,11.78035302734375,-0.0732879638671875,-0.9947509765625,0.108612060546875
1773251430173389300,11.790389404296874,-0.072021484375,-0.9952392578125,0.105560302734375
1773251430183426000,11.800426025390625,-0.0712738037109375,-0.9945831298828125,0.1063385009765625
1773251430193462000,11.8104619140625,-0.0745849609375,-0.9939117431640625,0.107208251953125
1773251430203498200,11.820498291015625,-0.0760498046875,-0.995452880859375,0.1043701171875
1773251430213535000,11.830534912109375,-0.0727996826171875,-0.992767333984375,0.1074066162109375
1773251430223571000,11.840571044921875,-0.0710906982421875,-0.988739013671875,0.107818603515625
1773251430233607200,11.850607177734375,-0.0717010498046875,-0.9873809814453125,0.1074676513671875
1773251430243644200,11.86064404296875,-0.0730743408203125,-0.987548828125,0.1076812744140625
1773251430253680000,11.87068017578125,-0.070587158203125,-0.98785400390625,0.10809326171875
1773251430263717000,11.880717041015625,-0.0681610107421875,-0.9896087646484375,0.1049346923828125
1773251430273753000,11.890753173828125,-0.061065673828125,-0.990447998046875,0.108642578125
1773251430283789000,11.9007890625,-0.057769775390625,-0.989990234375,0.107940673828125
1773251430293826000,11.910825927734376,-0.0567626953125,-0.9932098388671875,0.103790283203125
1773251430303862000,11.920862060546876,-0.0579833984375,-0.9939422607421875,0.1052093505859375
1773251430313899000,11.93089892578125,-0.0635986328125,-0.9929962158203125,0.1078033447265625
1773251430323935000,11.94093505859375,-0.06524658203125,-0.992431640625,0.1097259521484375
1773251430333972000,11.950971923828124,-0.0671234130859375,-0.992156982421875,0.1103973388671875
1773251430344009000,11.961009033203124,-0.0687713623046875,-0.991851806640625,0.1053466796875
1773251430354045000,11.971044921875,-0.0664825439453125,-0.99151611328125,0.1053314208984375
1773251430364081000,11.981080810546874,-0.0659332275390625,-0.9903106689453125,0.103363037109375
1773251430374118000,11.991117919921875,-0.0640106201171875,-0.989410400390625,0.103271484375
1773251430384153900,12.00115380859375,-0.0617523193359375,-0.9882659912109375,0.10418701171875
1773251430394190800,12.01119091796875,-0.060791015625,-0.98870849609375,0.1029815673828125
1773251430404226800,12.021226806640625,-0.0607147216796875,-0.989013671875,0.10491943359375
1773251430414262800,12.0312626953125,-0.059051513671875,-0.988189697265625,0.1092987060546875
1773251430424300000,12.041300048828125,-0.0570220947265625,-0.98919677734375,0.1085662841796875
1773251430434336000,12.0513359375,-0.0579071044921875,-0.9882354736328125,0.106658935546875
1773251430444373000,12.061373046875,-0.0626983642578125,-0.987213134765625,0.1059417724609375
1773251430454409000,12.071408935546875,-0.0630950927734375,-0.9872894287109375,0.10235595703125
1773251430464445000,12.08144482421875,-0.06475830078125,-0.986785888671875,0.09991455078125
1773251430474482000,12.09148193359375,-0.0645751953125,-0.9861907958984375,0.09832763671875
1773251430484518000,12.101517822265626,-0.0627288818359375,-0.987701416015625,0.10211181640625
1773251430494553900,12.111553955078126,-0.0603179931640625,-0.9858551025390625,0.1060333251953125
1773251430504591000,12.121591064453124,-0.058990478515625,-0.98675537109375,0.1013946533203125
1773251430514627000,12.131626953125,-0.06146240234375,-0.9886474609375,0.10260009765625
1773251430524663800,12.141663818359374,-0.06011962890625,-0.9882049560546875,0.1047210693359375
1773251430534700000,12.151699951171874,-0.0590667724609375,-0.986846923828125,0.102691650390625
1773251430544736000,12.161736083984374,-0.060211181640625,-0.987762451171875,0.10113525390625
1773251430554772700,12.171772705078125,-0.0592193603515625,-0.9866790771484375,0.10247802734375
1773251430564809000,12.18180908203125,-0.0620269775390625,-0.98748779296875,0.1033172607421875
1773251430574845700,12.191845703125,-0.062164306640625,-0.9869842529296875,0.1019744873046875
1773251430584881700,12.201881591796875,-0.0626983642578125,-0.98681640625,0.10418701171875
1773251430594918000,12.21191796875,-0.0628204345703125,-0.986053466796875,0.1045684814453125
1773251430604955000,12.221954833984375,-0.06036376953125,-0.987396240234375,0.1029510498046875
1773251430614990800,12.231990966796875,-0.058197021484375,-0.987945556640625,0.101898193359375
1773251430625026800,12.24202685546875,-0.0582733154296875,-0.9884033203125,0.1043701171875
1773251430635063800,12.252063720703125,-0.0590362548828125,-0.988677978515625,0.1041717529296875
1773251430645099800,12.262099853515625,-0.0604248046875,-0.988006591796875,0.1031341552734375
1773251430655136800,12.27213671875,-0.0606842041015625,-0.9868927001953125,0.10498046875
1773251430665172700,12.2821728515625,-0.060333251953125,-0.9867095947265625,0.1053009033203125
1773251430675208700,12.292208740234376,-0.0627288818359375,-0.9869842529296875,0.1058807373046875
1773251430685246000,12.302245849609376,-0.062225341796875,-0.9869537353515625,0.1049346923828125
1773251430695282000,12.312281982421876,-0.06201171875,-0.9889373779296875,0.1054229736328125
1773251430705319000,12.32231884765625,-0.0593719482421875,-0.9879150390625,0.10638427734375
1773251430715355000,12.33235498046875,-0.0614013671875,-0.9897308349609375,0.105987548828125
1773251430725390800,12.342390869140624,-0.061676025390625,-0.990753173828125,0.1059417724609375
1773251430735427800,12.352427734375,-0.062652587890625,-0.990936279296875,0.1041717529296875
1773251430745463800,12.3624638671875,-0.062530517578125,-0.9913330078125,0.1024932861328125
1773251430755499800,12.372499755859375,-0.064208984375,-0.992889404296875,0.1046905517578125
1773251430765536800,12.382536865234375,-0.0651702880859375,-0.993621826171875,0.103302001953125
1773251430775572700,12.39257275390625,-0.069366455078125,-0.993255615234375,0.1014862060546875
1773251430785610000,12.40260986328125,-0.075042724609375,-0.9909210205078125,0.10174560546875
1773251430795646000,12.41264599609375,-0.07501220703125,-0.9890899658203125,0.1034393310546875
1773251430805682000,12.422681884765625,-0.0703582763671875,-0.98736572265625,0.1059417724609375
1773251430815719000,12.432718994140625,-0.0667266845703125,-0.9857025146484375,0.1035308837890625
1773251430825755000,12.4427548828125,-0.060882568359375,-0.9869384765625,0.101318359375
1773251430835792000,12.4527919921875,-0.0535125732421875,-0.9877166748046875,0.103363037109375
1773251430845827800,12.462827880859376,-0.0525970458984375,-0.9916534423828125,0.1070098876953125
1773251430855863800,12.47286376953125,-0.050262451171875,-0.9941253662109375,0.106842041015625
1773251430865901000,12.482901123046876,-0.054046630859375,-0.9974365234375,0.10498046875
1773251430875937000,12.49293701171875,-0.0601043701171875,-0.9973907470703125,0.101776123046875
1773251430885973000,12.502972900390626,-0.0662384033203125,-0.9957122802734375,0.102294921875
1773251430896010000,12.513010009765624,-0.06622314453125,-0.9917449951171875,0.103302001953125
1773251430906046000,12.5230458984375,-0.0641326904296875,-0.988128662109375,0.1018524169921875
1773251430916083000,12.5330830078125,-0.064605712890625,-0.9870147705078125,0.09710693359375
1773251430926119000,12.543118896484375,-0.07305908203125,-0.9863739013671875,0.0959625244140625
1773251430936155000,12.55315478515625,-0.083709716796875,-0.9861602783203125,0.0982513427734375
1773251430946192000,12.56319189453125,-0.0855560302734375,-0.9906768798828125,0.1008148193359375
1773251430956227800,12.573227783203125,-0.077117919921875,-0.99359130859375,0.1024322509765625
1773251430966265000,12.58326513671875,-0.0660552978515625,-0.9937744140625,0.1034393310546875
1773251430976301000,12.593301025390625,-0.056976318359375,-0.996612548828125,0.1023406982421875
1773251430986337000,12.6033369140625,-0.053192138671875,-0.99627685546875,0.10296630859375
1773251430996374000,12.6133740234375,-0.056732177734375,-0.994384765625,0.1042327880859375
1773251431006410000,12.623409912109375,-0.0643157958984375,-0.99481201171875,0.1033477783203125
1773251431016446000,12.633446044921875,-0.06951904296875,-0.994171142578125,0.1005096435546875
1773251431026483000,12.64348291015625,-0.0709381103515625,-0.9907073974609375,0.1037750244140625
1773251431036519000,12.653518798828125,-0.0689544677734375,-0.990875244140625,0.1062469482421875
1773251431046556000,12.663555908203126,-0.06378173828125,-0.99072265625,0.1038818359375
1773251431056592000,12.673591796875,-0.0615234375,-0.990753173828125,0.1017303466796875
1773251431066628000,12.683628173828126,-0.0612335205078125,-0.9898681640625,0.1055145263671875
1773251431076664800,12.693664794921874,-0.0625152587890625,-0.990692138671875,0.109161376953125
1773251431086700800,12.70370068359375,-0.060943603515625,-0.9933319091796875,0.1056365966796875
1773251431096737800,12.71373779296875,-0.0607452392578125,-0.9889678955078125,0.10040283203125
1773251431106773800,12.723773681640624,-0.0630950927734375,-0.9875640869140625,0.1027984619140625
1773251431116809700,12.733809814453124,-0.0681304931640625,-0.9875946044921875,0.104644775390625
1773251431126846700,12.7438466796875,-0.0688629150390625,-0.9854583740234375,0.1036834716796875
1773251431136882700,12.753882568359375,-0.064788818359375,-0.9847412109375,0.102874755859375
1773251431146918700,12.763918701171875,-0.062103271484375,-0.986785888671875,0.10162353515625
1773251431156956000,12.773955810546875,-0.061248779296875,-0.9876708984375,0.1022796630859375
1773251431166992000,12.783991943359375,-0.059600830078125,-0.9908447265625,0.103729248046875
1773251431177028900,12.79402880859375,-0.0579376220703125,-0.9927825927734375,0.1051177978515625
1773251431187064800,12.80406494140625,-0.056610107421875,-0.992919921875,0.1062164306640625
1773251431197100800,12.814100830078125,-0.05841064453125,-0.9947509765625,0.107818603515625
1773251431207137800,12.8241376953125,-0.0628204345703125,-0.9935150146484375,0.1076202392578125
1773251431217173800,12.834173828125,-0.065460205078125,-0.992431640625,0.1065673828125
1773251431227210800,12.844210693359376,-0.067840576171875,-0.9913482666015625,0.10528564453125
1773251431237247000,12.8542470703125,-0.0685882568359375,-0.9920501708984375,0.1059417724609375
1773251431247283000,12.864282958984376,-0.066497802734375,-0.991241455078125,0.1076812744140625
1773251431257320000,12.87431982421875,-0.06439208984375,-0.993377685546875,0.10833740234375
1773251431267356000,12.88435595703125,-0.06219482421875,-0.9927215576171875,0.1090545654296875
1773251431277392000,12.894391845703124,-0.0615692138671875,-0.990692138671875,0.1081695556640625
1773251431287428900,12.904428955078124,-0.0618438720703125,-0.9914398193359375,0.1096038818359375
1773251431297464800,12.91446484375,-0.0630950927734375,-0.9924163818359375,0.1101226806640625
1773251431307501800,12.924501708984375,-0.06292724609375,-0.99346923828125,0.10992431640625
1773251431317537800,12.934537841796875,-0.061614990234375,-0.9921875,0.1087188720703125
1773251431327573800,12.94457373046875,-0.0625457763671875,-0.988555908203125,0.110107421875
1773251431337610800,12.95461083984375,-0.061614990234375,-0.9883880615234375,0.1107177734375
