time,seconds_elapsed,z,y,x
1773251733582921200,0.054921142578125,-0.8462371826171875,-0.6478118896484375,-0.0061187744140625
1773251733592958200,0.064958251953125,-0.8209228515625,-0.6541748046875,-0.0109710693359375
1773251733602996200,0.074996337890625,-0.829010009765625,-0.676116943359375,-0.002044677734375
1773251733613033200,0.085033203125,-0.833526611328125,-0.6633758544921875,-0.0070648193359375
1773251733623070200,0.0950703125,-0.873382568359375,-0.7017364501953125,0.043701171875
1773251733633107200,0.105107177734375,-0.9252471923828125,-0.74481201171875,0.0990447998046875
1773251733643145700,0.115145751953125,-0.8543701171875,-0.73968505859375,0.122467041015625
1773251733653183000,0.125182861328125,-0.815521240234375,-0.7839813232421875,0.0840606689453125
1773251733663220000,0.135219970703125,-0.8246917724609375,-0.77069091796875,0.0528106689453125
1773251733673257000,0.145257080078125,-0.8051300048828125,-0.7618255615234375,0.060028076171875
1773251733683294700,0.155294677734375,-0.7632904052734375,-0.741180419921875,0.0475006103515625
1773251733693332000,0.16533203125,-0.7387542724609375,-0.7120513916015625,0.009735107421875
1773251733703369000,0.175368896484375,-0.7180328369140625,-0.691162109375,-0.0051422119140625
1773251733713406000,0.185406005859375,-0.717193603515625,-0.681915283203125,-0.0313262939453125
1773251733723444000,0.19544384765625,-0.6912994384765625,-0.6800537109375,-0.049102783203125
1773251733733481000,0.20548095703125,-0.676239013671875,-0.6849517822265625,-0.0558929443359375
1773251733743518000,0.21551806640625,-0.6719970703125,-0.7100067138671875,-0.0718536376953125
1773251733753555000,0.225554931640625,-0.668121337890625,-0.721435546875,-0.096343994140625
1773251733763593000,0.235593017578125,-0.6961517333984375,-0.712158203125,-0.095123291015625
1773251733773630000,0.2456298828125,-0.7386932373046875,-0.71185302734375,-0.065765380859375
1773251733783667000,0.2556669921875,-0.7521514892578125,-0.72344970703125,-0.047576904296875
1773251733793703700,0.26570361328125,-0.7212371826171875,-0.735565185546875,-0.0439453125
1773251733803742000,0.275741943359375,-0.604248046875,-0.751129150390625,-0.0667877197265625
1773251733813779000,0.285779052734375,-0.4965972900390625,-0.775390625,-0.0861053466796875
1773251733823816000,0.29581591796875,-0.47198486328125,-0.7916717529296875,-0.093719482421875
1773251733833852700,0.305852783203125,-0.4271697998046875,-0.768707275390625,-0.1012420654296875
1773251733843890000,0.315889892578125,-0.4066314697265625,-0.74322509765625,-0.088592529296875
1773251733853928000,0.325927978515625,-0.412139892578125,-0.7650604248046875,-0.051513671875
1773251733863964700,0.335964599609375,-0.3917999267578125,-0.773895263671875,-0.001373291015625
1773251733874002000,0.346001953125,-0.370330810546875,-0.792938232421875,0.0640716552734375
1773251733884039000,0.356038818359375,-0.3280029296875,-0.8498077392578125,0.10174560546875
1773251733894077000,0.366076904296875,-0.24383544921875,-0.9033660888671875,0.1077728271484375
1773251733904113700,0.37611376953125,-0.151397705078125,-0.9388885498046875,0.114959716796875
1773251733914151000,0.38615087890625,-0.0642242431640625,-0.956451416015625,0.1352691650390625
1773251733924188000,0.39618798828125,0.006805419921875,-0.9622955322265625,0.1436309814453125
1773251733934226000,0.406225830078125,0.040008544921875,-0.93853759765625,0.1845703125
1773251733944263000,0.416262939453125,0.056854248046875,-0.9335479736328125,0.2027587890625
1773251733954300000,0.4262998046875,0.1000213623046875,-0.9564666748046875,0.181610107421875
1773251733964337000,0.4363369140625,0.1265411376953125,-0.9709625244140625,0.2004852294921875
1773251733974374700,0.446374755859375,0.1673736572265625,-1.0008392333984375,0.186248779296875
1773251733984412000,0.456411865234375,0.2012176513671875,-1.0173492431640625,0.17022705078125
1773251733994449000,0.466448974609375,0.214874267578125,-1.010498046875,0.197540283203125
1773251734004486000,0.47648583984375,0.2287750244140625,-1.0097198486328125,0.2093048095703125
1773251734014524000,0.48652392578125,0.2851104736328125,-1.031646728515625,0.2136688232421875
1773251734024561000,0.496560791015625,0.349212646484375,-1.048248291015625,0.216583251953125
1773251734034598000,0.506597900390625,0.36407470703125,-1.0565948486328125,0.2348175048828125
1773251734044635000,0.516634765625,0.3418731689453125,-1.069244384765625,0.226959228515625
1773251734054673000,0.5266728515625,0.25732421875,-1.0572357177734375,0.2197418212890625
1773251734064710000,0.5367099609375,0.1643829345703125,-1.0213165283203125,0.2022857666015625
1773251734074747000,0.546746826171875,0.0939178466796875,-0.9192352294921875,0.1550750732421875
1773251734084783900,0.556783935546875,0.0464019775390625,-0.80938720703125,0.092193603515625
1773251734094820900,0.56682080078125,0.12744140625,-0.7838134765625,0.0225830078125
1773251734104859000,0.57685888671875,0.2207489013671875,-0.812103271484375,0.0008544921875
1773251734114896000,0.586895751953125,0.2282867431640625,-0.8794708251953125,0.03564453125
1773251734124932900,0.596932861328125,0.19525146484375,-0.947723388671875,0.071990966796875
1773251734134971000,0.606970947265625,0.1723175048828125,-0.9930877685546875,0.081634521484375
1773251734145007900,0.6170078125,0.1668243408203125,-1.022369384765625,0.0844268798828125
1773251734155044900,0.627044921875,0.1307220458984375,-1.0330810546875,0.0999603271484375
1773251734165081900,0.637081787109375,0.0939178466796875,-1.02362060546875,0.1285400390625
1773251734175118800,0.647118896484375,0.125762939453125,-1.0077362060546875,0.098724365234375
1773251734185156900,0.657156982421875,0.1615142822265625,-0.9722137451171875,0.0875396728515625
1773251734195193900,0.66719384765625,0.1508026123046875,-0.932647705078125,0.1000823974609375
1773251734205230800,0.67723095703125,0.1438140869140625,-0.9216461181640625,0.118194580078125
1773251734215267800,0.687267822265625,0.164947509765625,-0.9272918701171875,0.1663665771484375
1773251734225305900,0.697305908203125,0.2025146484375,-0.93792724609375,0.2022247314453125
1773251734235343000,0.707343017578125,0.227020263671875,-0.9418792724609375,0.194122314453125
1773251734245379800,0.7173798828125,0.2454986572265625,-0.9443359375,0.19378662109375
1773251734255416800,0.727416748046875,0.257354736328125,-0.9195709228515625,0.180755615234375
1773251734265454800,0.737454833984375,0.3273773193359375,-0.7877655029296875,0.306396484375
1773251734275491800,0.747491943359375,0.2646636962890625,-0.8174591064453125,0.3426513671875
1773251734285528800,0.75752880859375,0.09246826171875,-0.9676055908203125,0.322265625
1773251734295565800,0.76756591796875,-0.0258636474609375,-1.0125579833984375,0.2788543701171875
1773251734305604000,0.77760400390625,-0.119049072265625,-1.0097503662109375,0.09002685546875
1773251734315640800,0.787640869140625,-0.2248687744140625,-1.0834197998046875,0.026031494140625
1773251734325677800,0.797677734375,-0.147796630859375,-1.0871734619140625,-0.06060791015625
1773251734335714800,0.80771484375,0.001708984375,-1.0709075927734375,-0.096771240234375
1773251734345752800,0.8177529296875,0.1532135009765625,-1.062103271484375,-0.0522308349609375
1773251734355789800,0.827789794921875,0.2303924560546875,-1.0380401611328125,0.050079345703125
1773251734365826800,0.837826904296875,0.2051544189453125,-1.0202178955078125,0.154815673828125
1773251734375863800,0.84786376953125,0.1272735595703125,-1.014007568359375,0.19451904296875
1773251734385901800,0.85790185546875,0.06158447265625,-1.0081024169921875,0.1747589111328125
1773251734395938800,0.867938720703125,0.03656005859375,-1.002349853515625,0.1526336669921875
1773251734405975800,0.877975830078125,0.0662841796875,-0.99688720703125,0.145965576171875
1773251734416012800,0.8880126953125,0.129638671875,-0.99627685546875,0.13482666015625
1773251734426050000,0.898050048828125,0.16461181640625,-0.99725341796875,0.130279541015625
1773251734436087800,0.908087890625,0.146087646484375,-0.9896697998046875,0.1481170654296875
1773251734446124800,0.918124755859375,0.10418701171875,-0.975128173828125,0.1820220947265625
1773251734456162000,0.928162109375,0.0922698974609375,-0.9772186279296875,0.1726531982421875
1773251734466199000,0.938198974609375,0.094268798828125,-0.992767333984375,0.14013671875
1773251734476236800,0.94823681640625,0.0843505859375,-1.0081329345703125,0.110809326171875
1773251734486273800,0.958273681640625,0.08819580078125,-1.0210113525390625,0.0810699462890625
1773251734496311000,0.96831103515625,0.1251373291015625,-0.93389892578125,0.077606201171875
1773251734506347800,0.97834765625,0.1355743408203125,-0.8718719482421875,0.08734130859375
1773251734516385800,0.9883857421875,0.1397247314453125,-0.8901214599609375,0.1065216064453125
1773251734526423000,0.998423095703125,0.1604461669921875,-0.964569091796875,0.131988525390625
1773251734536460000,1.0084599609375,0.1492462158203125,-1.0516815185546875,0.12689208984375
1773251734546496800,1.018496826171875,0.102386474609375,-1.089080810546875,0.1095428466796875
1773251734556534800,1.02853466796875,0.0335235595703125,-1.0767822265625,0.1284637451171875
1773251734566572000,1.038572021484375,0.0153350830078125,-1.0517425537109375,0.1525726318359375
1773251734576609000,1.048609130859375,0.063873291015625,-1.0420989990234375,0.1932220458984375
1773251734586645800,1.058645751953125,0.136993408203125,-1.0423583984375,0.28302001953125
1773251734596684000,1.06868408203125,0.1844024658203125,-1.0112152099609375,0.3324432373046875
1773251734606721000,1.078720947265625,0.196075439453125,-0.9734039306640625,0.3008880615234375
1773251734616757800,1.0887578125,0.1669769287109375,-0.9611968994140625,0.2086029052734375
1773251734626794800,1.098794677734375,0.1282501220703125,-0.950775146484375,0.13812255859375
1773251734636833000,1.1088330078125,0.11322021484375,-0.9656829833984375,0.1104583740234375
1773251734646870000,1.1188701171875,0.0950164794921875,-0.9882965087890625,0.11749267578125
1773251734656906800,1.12890673828125,0.0632476806640625,-0.966278076171875,0.124298095703125
1773251734666943700,1.13894384765625,0.0527496337890625,-0.946044921875,0.123504638671875
1773251734676981000,1.14898095703125,0.0840301513671875,-0.9548797607421875,0.0877685546875
1773251734687018800,1.159018798828125,0.1405487060546875,-0.9998931884765625,0.0501251220703125
1773251734697055700,1.1690556640625,0.1827545166015625,-0.9719390869140625,0.026947021484375
1773251734707092700,1.1790927734375,0.175811767578125,-0.9511871337890625,0.0410308837890625
1773251734717130000,1.1891298828125,0.158935546875,-0.95208740234375,0.0268402099609375
1773251734727167700,1.199167724609375,0.149078369140625,-0.943115234375,-0.012237548828125
1773251734737204700,1.209204833984375,0.1305694580078125,-0.9450225830078125,-0.01629638671875
1773251734747242000,1.219241943359375,0.08636474609375,-0.960113525390625,0.002655029296875
1773251734757279000,1.229279052734375,0.0635986328125,-1.0044097900390625,0.023529052734375
1773251734767316700,1.239316650390625,0.0548553466796875,-1.0415802001953125,0.0804443359375
1773251734777353700,1.249353759765625,0.0624542236328125,-1.027069091796875,0.17266845703125
1773251734787391000,1.259390869140625,0.072967529296875,-1.0162811279296875,0.22833251953125
1773251734797428000,1.269427978515625,0.089324951171875,-1.0174102783203125,0.240234375
1773251734807465700,1.2794658203125,0.11566162109375,-1.0175323486328125,0.217376708984375
1773251734817503000,1.2895029296875,0.120208740234375,-1.018310546875,0.2039337158203125
1773251734827540000,1.2995400390625,0.1095123291015625,-1.0044708251953125,0.196563720703125
1773251734837577000,1.309576904296875,0.1009979248046875,-1.0016632080078125,0.1950531005859375
1773251734847614700,1.31961474609375,0.10882568359375,-0.9985809326171875,0.203857421875
1773251734857652000,1.32965185546875,0.115203857421875,-0.9925994873046875,0.1849822998046875
1773251734867689000,1.33968896484375,0.1109771728515625,-0.9866943359375,0.169647216796875
1773251734877726000,1.349725830078125,0.093353271484375,-0.9734954833984375,0.1649169921875
1773251734887764000,1.359763916015625,0.0672760009765625,-0.9215545654296875,0.1246185302734375
1773251734897801000,1.369801025390625,0.059173583984375,-0.8734893798828125,0.06732177734375
1773251734907838000,1.379837890625,0.076141357421875,-0.8571929931640625,0.0235137939453125
1773251734917874700,1.389874755859375,0.093231201171875,-0.8701019287109375,0.0306396484375
1773251734927911700,1.39991162109375,0.089630126953125,-0.92242431640625,0.065460205078125
1773251734937950000,1.409949951171875,0.0649261474609375,-0.9810943603515625,0.0936126708984375
1773251734947987000,1.419987060546875,0.0349884033203125,-1.0085601806640625,0.1429595947265625
1773251734958023700,1.430023681640625,0.0030059814453125,-1.0044403076171875,0.227996826171875
1773251734968061000,1.44006103515625,-0.0510406494140625,-0.9955291748046875,0.28265380859375
1773251734978099000,1.450098876953125,-0.102325439453125,-0.9962310791015625,0.290863037109375
1773251734988136000,1.460135986328125,-0.0945281982421875,-0.9847412109375,0.2440032958984375
1773251734998172700,1.470172607421875,-0.0403594970703125,-0.977813720703125,0.2031097412109375
1773251735008210000,1.4802099609375,0.0080108642578125,-1.0001983642578125,0.180816650390625
1773251735018248000,1.490248046875,0.0338287353515625,-1.0251922607421875,0.1666259765625
1773251735028284700,1.50028466796875,0.0386199951171875,-1.0229644775390625,0.155792236328125
1773251735038322000,1.510322021484375,0.0390167236328125,-0.99517822265625,0.1502838134765625
1773251735048359000,1.52035888671875,0.03387451171875,-0.9753875732421875,0.1409149169921875
1773251735058397000,1.53039697265625,0.033843994140625,-0.969390869140625,0.140533447265625
1773251735068433700,1.54043359375,0.0399322509765625,-0.97686767578125,0.14996337890625
1773251735078471000,1.550470947265625,0.0421142578125,-0.992095947265625,0.1508331298828125
1773251735088508000,1.5605078125,0.04779052734375,-1.001800537109375,0.144989013671875
1773251735098545700,1.570545654296875,0.0427093505859375,-1.00421142578125,0.170074462890625
1773251735108583000,1.5805830078125,0.0269012451171875,-1.0032196044921875,0.188751220703125
1773251735118620000,1.590619873046875,0.019927978515625,-1.0029449462890625,0.186126708984375
1773251735128657000,1.600656982421875,0.0258941650390625,-0.9922027587890625,0.1782989501953125
1773251735138694000,1.61069384765625,0.0379486083984375,-0.97137451171875,0.176849365234375
1773251735148732000,1.62073193359375,0.048736572265625,-0.959442138671875,0.179412841796875
1773251735158769000,1.630768798828125,0.0577392578125,-0.955810546875,0.1796417236328125
1773251735168806000,1.640805908203125,0.060455322265625,-0.956024169921875,0.1859283447265625
1773251735178843000,1.6508427734375,0.0500640869140625,-0.9535369873046875,0.1861114501953125
1773251735188881000,1.660880859375,0.03289794921875,-0.96905517578125,0.1753082275390625
1773251735198918000,1.67091796875,0.0199432373046875,-0.9824371337890625,0.158905029296875
1773251735208955000,1.680954833984375,0.027435302734375,-0.9874114990234375,0.154327392578125
1773251735218991900,1.690991943359375,0.04296875,-0.995697021484375,0.16961669921875
1773251735229030000,1.70102978515625,0.0565185546875,-0.9943084716796875,0.187744140625
1773251735239067000,1.71106689453125,0.0577850341796875,-0.9867706298828125,0.1876068115234375
1773251735249104000,1.721103759765625,0.0350341796875,-0.9856414794921875,0.17352294921875
1773251735259140900,1.731140869140625,0.01165771484375,-0.9914093017578125,0.17974853515625
1773251735269179000,1.741178955078125,0.047821044921875,-0.98895263671875,0.18017578125
1773251735279215900,1.7512158203125,0.0897979736328125,-1.0099639892578125,0.1752777099609375
1773251735289252900,1.7612529296875,0.0771484375,-0.989776611328125,0.174041748046875
1773251735299289900,1.771289794921875,0.06170654296875,-0.95550537109375,0.170623779296875
1773251735309328000,1.781327880859375,0.0419158935546875,-0.9614410400390625,0.16754150390625
1773251735319364900,1.79136474609375,0.036468505859375,-0.9720306396484375,0.1682586669921875
1773251735329401900,1.80140185546875,0.0462188720703125,-0.971221923828125,0.167144775390625
1773251735339438800,1.81143896484375,0.0603790283203125,-0.974609375,0.1629180908203125
1773251735349475800,1.821475830078125,0.079437255859375,-0.983001708984375,0.156219482421875
1773251735359513900,1.831513916015625,0.0833892822265625,-0.9890289306640625,0.152862548828125
1773251735369550800,1.84155078125,0.0686492919921875,-1.0002899169921875,0.1630706787109375
1773251735379587800,1.851587890625,0.0544586181640625,-1.0035552978515625,0.1756744384765625
1773251735389624800,1.861624755859375,0.060791015625,-0.99505615234375,0.182037353515625
1773251735399662800,1.871662841796875,0.0737457275390625,-0.988250732421875,0.1876068115234375
1773251735409699800,1.881699951171875,0.072052001953125,-0.9876708984375,0.1888580322265625
1773251735419736800,1.89173681640625,0.0555572509765625,-0.9849395751953125,0.180694580078125
1773251735429773800,1.90177392578125,0.0424041748046875,-0.9799957275390625,0.1709136962890625
1773251735439811800,1.911811767578125,0.044769287109375,-0.9720916748046875,0.162994384765625
1773251735449848800,1.921848876953125,0.0607757568359375,-0.969390869140625,0.1651611328125
1773251735459885800,1.9318857421875,0.0740509033203125,-0.9622650146484375,0.168853759765625
1773251735469922800,1.9419228515625,0.08349609375,-0.9608917236328125,0.1728973388671875
1773251735479960000,1.9519599609375,0.075347900390625,-0.9711456298828125,0.1732330322265625
1773251735489997800,1.961997802734375,0.06304931640625,-0.9777679443359375,0.169158935546875
1773251735500034800,1.972034912109375,0.06109619140625,-0.97613525390625,0.176910400390625
1773251735510072000,1.982072021484375,0.0673828125,-0.9697723388671875,0.1797027587890625
1773251735520109000,1.992109130859375,0.078582763671875,-0.96282958984375,0.177032470703125
1773251735530146800,2.002146728515625,0.0811004638671875,-0.96563720703125,0.1833038330078125
1773251735540183800,2.012183837890625,0.06207275390625,-0.9842529296875,0.1833648681640625
1773251735550221000,2.022220947265625,0.06103515625,-0.9969024658203125,0.1717987060546875
1773251735560257800,2.0322578125,0.060791015625,-1.001953125,0.1710357666015625
1773251735570295800,2.0422958984375,0.034912109375,-0.9924468994140625,0.16845703125
1773251735580333000,2.0523330078125,0.038330078125,-0.9848785400390625,0.1680145263671875
1773251735590370000,2.0623701171875,0.06170654296875,-0.9807891845703125,0.170562744140625
1773251735600406800,2.07240673828125,0.0718841552734375,-0.983184814453125,0.1650543212890625
1773251735610444800,2.08244482421875,0.0642547607421875,-0.989471435546875,0.168182373046875
1773251735620482000,2.09248193359375,0.05828857421875,-0.9822998046875,0.178070068359375
1773251735630519000,2.10251904296875,0.0728912353515625,-0.9803314208984375,0.1797332763671875
1773251735640555300,2.11255517578125,0.0889892578125,-0.9868927001953125,0.182891845703125
1773251735650592300,2.12259228515625,0.0848846435546875,-1.0002899169921875,0.1853790283203125
1773251735660630300,2.13263037109375,0.0665283203125,-1.005279541015625,0.17608642578125
1773251735670667300,2.142667236328125,0.052001953125,-0.996002197265625,0.173736572265625
1773251735680704300,2.152704345703125,0.0522308349609375,-0.9850616455078125,0.170928955078125
1773251735690741200,2.1627412109375,0.0621185302734375,-0.9763641357421875,0.1639862060546875
1773251735700779300,2.172779296875,0.069793701171875,-0.9729156494140625,0.1573028564453125
1773251735710816300,2.182816162109375,0.0715484619140625,-0.975494384765625,0.1613922119140625
1773251735720853200,2.192853271484375,0.0703582763671875,-0.9772186279296875,0.1739654541015625
1773251735730890200,2.20289013671875,0.063232421875,-0.98046875,0.1802825927734375
1773251735740928300,2.21292822265625,0.0576324462890625,-0.982635498046875,0.1750640869140625
1773251735750965200,2.22296533203125,0.0577239990234375,-0.983367919921875,0.1778411865234375
1773251735761002200,2.233002197265625,0.0606689453125,-0.9893798828125,0.1737213134765625
1773251735771039200,2.243039306640625,0.066741943359375,-0.98492431640625,0.172515869140625
1773251735781076200,2.253076171875,0.067169189453125,-0.9817352294921875,0.177642822265625
1773251735791114200,2.2631142578125,0.0561676025390625,-0.9786529541015625,0.175994873046875
1773251735801151200,2.273151123046875,0.0531768798828125,-0.9718017578125,0.1743621826171875
1773251735811188200,2.283188232421875,0.0541839599609375,-0.9812469482421875,0.170501708984375
1773251735821225200,2.29322509765625,0.0540924072265625,-0.9871978759765625,0.1646881103515625
1773251735831263200,2.30326318359375,0.051910400390625,-0.9871063232421875,0.161163330078125
1773251735841300200,2.31330029296875,0.0542144775390625,-0.982757568359375,0.1601715087890625
1773251735851337200,2.323337158203125,0.065460205078125,-0.9742431640625,0.1733551025390625
1773251735861374200,2.333374267578125,0.069366455078125,-0.972320556640625,0.1796875
1773251735871412200,2.343412109375,0.06744384765625,-0.9761810302734375,0.1737213134765625
1773251735881449200,2.35344921875,0.06292724609375,-0.98187255859375,0.1714935302734375
1773251735891486200,2.363486328125,0.055877685546875,-0.989410400390625,0.1698760986328125
1773251735901523500,2.3735234375,0.0566558837890625,-0.993255615234375,0.1649322509765625
1773251735911561200,2.383561279296875,0.0606536865234375,-0.9914703369140625,0.16552734375
1773251735921598200,2.39359814453125,0.06097412109375,-0.9842529296875,0.167083740234375
1773251735931635200,2.40363525390625,0.0594482421875,-0.9758758544921875,0.16656494140625
1773251735941672400,2.41367236328125,0.060272216796875,-0.9752960205078125,0.1668243408203125
1773251735951709200,2.423709228515625,0.0554656982421875,-0.9787139892578125,0.1680755615234375
1773251735961747200,2.433747314453125,0.0558013916015625,-0.9822998046875,0.1647491455078125
1773251735971784400,2.443784423828125,0.0533599853515625,-0.9839019775390625,0.16046142578125
1773251735981821200,2.4538212890625,0.050140380859375,-0.9830169677734375,0.1593780517578125
1773251735991858200,2.463858154296875,0.0507354736328125,-0.9788360595703125,0.16107177734375
1773251736001896200,2.473896240234375,0.0569305419921875,-0.98016357421875,0.165557861328125
1773251736011933400,2.483933349609375,0.063995361328125,-0.9818115234375,0.1692352294921875
1773251736021970200,2.49397021484375,0.065032958984375,-0.9781341552734375,0.175201416015625
1773251736032007200,2.504007080078125,0.0623626708984375,-0.977630615234375,0.17926025390625
1773251736042045400,2.51404541015625,0.061492919921875,-0.9793853759765625,0.1748809814453125
1773251736052082200,2.524082275390625,0.04486083984375,-0.980712890625,0.172576904296875
1773251736062119200,2.534119140625,0.0328521728515625,-0.9777679443359375,0.1761932373046875
1773251736072156200,2.54415625,0.032928466796875,-0.982177734375,0.1701202392578125
1773251736082193200,2.554193115234375,0.0560302734375,-0.9893035888671875,0.1639404296875
1773251736092231200,2.564231201171875,0.0745697021484375,-0.9849395751953125,0.165374755859375
1773251736102268200,2.57426806640625,0.0682830810546875,-0.9832763671875,0.1666259765625
1773251736112305200,2.58430517578125,0.06524658203125,-0.9869384765625,0.165496826171875
1773251736122342400,2.59434228515625,0.052490234375,-0.984893798828125,0.1743316650390625
1773251736132380200,2.604380126953125,0.0485992431640625,-0.9800567626953125,0.183563232421875
1773251736142417200,2.614417236328125,0.0575408935546875,-0.98370361328125,0.1812744140625
1773251736152454100,2.6244541015625,0.072021484375,-0.990142822265625,0.177093505859375
1773251736162491400,2.634491455078125,0.0702972412109375,-0.9899444580078125,0.1729736328125
1773251736172529200,2.644529052734375,0.04443359375,-0.989959716796875,0.1680908203125
1773251736182566100,2.654566162109375,0.0340118408203125,-0.9893951416015625,0.1661834716796875
1773251736192603400,2.664603271484375,0.0514984130859375,-0.983184814453125,0.172576904296875
1773251736202640400,2.674640380859375,0.072845458984375,-0.97625732421875,0.1752471923828125
1773251736212678100,2.68467822265625,0.0738525390625,-0.9731292724609375,0.1651763916015625
1773251736222715100,2.694715087890625,0.062286376953125,-0.976318359375,0.1628875732421875
1773251736232752400,2.70475244140625,0.050567626953125,-0.9793701171875,0.165802001953125
1773251736242789400,2.714789306640625,0.0439300537109375,-0.9797821044921875,0.1645660400390625
1773251736252826000,2.724826171875,0.05010986328125,-0.9740142822265625,0.164886474609375
1773251736262864400,2.734864501953125,0.0564422607421875,-0.9722137451171875,0.1722869873046875
1773251736272901400,2.7449013671875,0.05950927734375,-0.973358154296875,0.17169189453125
1773251736282938400,2.7549384765625,0.059356689453125,-0.9724273681640625,0.1708831787109375
1773251736292975000,2.76497509765625,0.05804443359375,-0.9756317138671875,0.1722564697265625
1773251736303013400,2.775013427734375,0.0535430908203125,-0.983123779296875,0.175201416015625
1773251736313050400,2.78505029296875,0.0477447509765625,-0.989471435546875,0.170928955078125
1773251736323087000,2.795087158203125,0.0472869873046875,-0.988616943359375,0.173187255859375
1773251736333124000,2.8051240234375,0.05609130859375,-0.9870758056640625,0.17083740234375
1773251736343162400,2.815162353515625,0.0570220947265625,-0.9852447509765625,0.1697845458984375
1773251736353199400,2.825199462890625,0.0521392822265625,-0.9833984375,0.1703948974609375
1773251736363236000,2.835236083984375,0.0650177001953125,-0.9880218505859375,0.1696319580078125
1773251736373273000,2.845273193359375,0.0747528076171875,-0.9929351806640625,0.16815185546875
1773251736383310300,2.855310302734375,0.046844482421875,-0.9855194091796875,0.169036865234375
1773251736393348000,2.86534814453125,0.0349884033203125,-0.9794769287109375,0.184295654296875
1773251736403385000,2.875385009765625,0.0437774658203125,-0.981658935546875,0.1830596923828125
1773251736413422300,2.88542236328125,0.0556793212890625,-0.978118896484375,0.1768798828125
1773251736423459300,2.895459228515625,0.065185546875,-0.9768524169921875,0.1743011474609375
1773251736433497000,2.9054970703125,0.0651397705078125,-0.9760589599609375,0.170501708984375
1773251736443534000,2.9155341796875,0.0677032470703125,-0.9760894775390625,0.1732330322265625
1773251736453571300,2.9255712890625,0.0665283203125,-0.977996826171875,0.173309326171875
1773251736463608300,2.9356083984375,0.06134033203125,-0.9816131591796875,0.16644287109375
1773251736473646000,2.94564599609375,0.0541534423828125,-0.9813690185546875,0.170989990234375
1773251736483683300,2.955683349609375,0.0493621826171875,-0.9837493896484375,0.1772003173828125
1773251736493720300,2.96572021484375,0.0532684326171875,-0.9852294921875,0.17181396484375
1773251736503757300,2.97575732421875,0.059417724609375,-0.982513427734375,0.17138671875
1773251736513794300,2.985794189453125,0.060394287109375,-0.9813079833984375,0.173095703125
1773251736523832300,2.995832275390625,0.062042236328125,-0.9806976318359375,0.17034912109375
1773251736533869300,3.005869384765625,0.0596160888671875,-0.980987548828125,0.1685333251953125
1773251736543906300,3.01590625,0.058624267578125,-0.9801788330078125,0.1712493896484375
1773251736553943000,3.025943115234375,0.0555877685546875,-0.9824981689453125,0.1715240478515625
1773251736563981300,3.035981201171875,0.0542449951171875,-0.98211669921875,0.1699066162109375
1773251736574018300,3.046018310546875,0.0569610595703125,-0.9785003662109375,0.173553466796875
1773251736584055300,3.05605517578125,0.0577545166015625,-0.978912353515625,0.1768798828125
1773251736594092300,3.06609228515625,0.0559844970703125,-0.983917236328125,0.173431396484375
1773251736604130300,3.07613037109375,0.05316162109375,-0.98583984375,0.1676483154296875
1773251736614167300,3.086167236328125,0.0542144775390625,-0.9892425537109375,0.167816162109375
1773251736624204000,3.0962041015625,0.053375244140625,-0.985382080078125,0.1678009033203125
1773251736634241300,3.1062412109375,0.0544281005859375,-0.9815521240234375,0.16961669921875
1773251736644278000,3.116278076171875,0.058197021484375,-0.9807586669921875,0.17132568359375
1773251736654316300,3.12631640625,0.058837890625,-0.9805450439453125,0.1684417724609375
1773251736664353000,3.13635302734375,0.0621795654296875,-0.980804443359375,0.168701171875
1773251736674390000,3.14639013671875,0.058441162109375,-0.9805755615234375,0.170989990234375
1773251736684427000,3.156427001953125,0.0549774169921875,-0.980072021484375,0.1688690185546875
1773251736694465300,3.16646533203125,0.0584716796875,-0.978912353515625,0.1679534912109375
1773251736704502000,3.176501953125,0.0579833984375,-0.982269287109375,0.17041015625
1773251736714539000,3.1865390625,0.0511474609375,-0.989898681640625,0.168792724609375
1773251736724576300,3.196576171875,0.0474700927734375,-0.9887847900390625,0.16552734375
1773251736734614000,3.206614013671875,0.048126220703125,-0.9814300537109375,0.1717681884765625
1773251736744651000,3.216651123046875,0.052581787109375,-0.980560302734375,0.1750946044921875
1773251736754688000,3.22668798828125,0.057220458984375,-0.97833251953125,0.1744537353515625
1773251736764725200,3.236725341796875,0.057525634765625,-0.977569580078125,0.1707916259765625
1773251736774762200,3.24676220703125,0.056396484375,-0.979248046875,0.170074462890625
1773251736784800000,3.256800048828125,0.0572357177734375,-0.98162841796875,0.1722259521484375
1773251736794837200,3.266837158203125,0.055145263671875,-0.9865570068359375,0.173828125
1773251736804874200,3.276874267578125,0.053466796875,-0.9887542724609375,0.1670684814453125
1773251736814911200,3.2869111328125,0.049835205078125,-0.9879608154296875,0.161163330078125
1773251736824949000,3.296948974609375,0.0499267578125,-0.9850311279296875,0.1607208251953125
1773251736834986200,3.306986328125,0.0525665283203125,-0.982879638671875,0.1641998291015625
1773251736845023200,3.317023193359375,0.058013916015625,-0.9799346923828125,0.1648712158203125
1773251736855060200,3.327060302734375,0.0686187744140625,-0.97930908203125,0.16552734375
1773251736865098200,3.33709814453125,0.06561279296875,-0.9780120849609375,0.1687469482421875
1773251736875135200,3.34713525390625,0.0443115234375,-0.976959228515625,0.1717376708984375
1773251736885172200,3.357172119140625,0.0473785400390625,-0.981903076171875,0.1746673583984375
1773251736895209000,3.367208984375,0.0520172119140625,-0.9839935302734375,0.170623779296875
1773251736905246000,3.377245849609375,0.06024169921875,-0.9845733642578125,0.1694183349609375
1773251736915284200,3.3872841796875,0.062164306640625,-0.984039306640625,0.1659393310546875
1773251736925321200,3.3973212890625,0.0592193603515625,-0.9793701171875,0.166259765625
1773251736935358000,3.40735791015625,0.045257568359375,-0.9759674072265625,0.1730194091796875
1773251736945395200,3.417395263671875,0.03515625,-0.9701080322265625,0.172637939453125
1773251736955433200,3.42743310546875,0.0434722900390625,-0.9767608642578125,0.17291259765625
1773251736965470000,3.437469970703125,0.0627899169921875,-0.983734130859375,0.1720428466796875
1773251736975507000,3.4475068359375,0.0712890625,-0.9873199462890625,0.1638641357421875
1773251736985544200,3.457544189453125,0.056396484375,-0.9842681884765625,0.1588287353515625
1773251736995582200,3.467582275390625,0.04339599609375,-0.9784088134765625,0.1678619384765625
1773251737005619000,3.477618896484375,0.0497894287109375,-0.9779205322265625,0.17254638671875
1773251737015656200,3.48765625,0.0610198974609375,-0.978118896484375,0.1726837158203125
1773251737025693200,3.497693115234375,0.0626068115234375,-0.9798583984375,0.167449951171875
1773251737035731200,3.507731201171875,0.0533447265625,-0.9810791015625,0.1620941162109375
1773251737045768000,3.517767822265625,0.0364990234375,-0.9832305908203125,0.166259765625
1773251737055805200,3.52780517578125,0.0335845947265625,-0.991546630859375,0.167022705078125
1773251737065842200,3.53784228515625,0.0454864501953125,-0.99578857421875,0.1647186279296875
1773251737075879200,3.547879150390625,0.055908203125,-0.9906463623046875,0.1681060791015625
1773251737085917200,3.557917236328125,0.0621795654296875,-0.987548828125,0.169281005859375
1773251737095954200,3.5679541015625,0.061798095703125,-0.9844512939453125,0.1631927490234375
1773251737105991200,3.5779912109375,0.0602874755859375,-0.9812164306640625,0.16021728515625
1773251737116028200,3.588028076171875,0.0538330078125,-0.9881744384765625,0.1575469970703125
1773251737126066200,3.598066162109375,0.050140380859375,-0.990875244140625,0.1575775146484375
1773251737136103200,3.608103271484375,0.047027587890625,-0.98431396484375,0.1643524169921875
1773251737146140200,3.61814013671875,0.0467529296875,-0.981597900390625,0.17230224609375
1773251737156177200,3.62817724609375,0.050323486328125,-0.980010986328125,0.1708984375
1773251737166214100,3.638214111328125,0.0479888916015625,-0.9823760986328125,0.1709136962890625
1773251737176252200,3.648252197265625,0.043060302734375,-0.983367919921875,0.1688995361328125
1773251737186289200,3.6582890625,0.0633697509765625,-0.9862518310546875,0.1652069091796875
1773251737196326100,3.668326171875,0.0627593994140625,-0.9850311279296875,0.1627197265625
1773251737206363100,3.678363037109375,0.049774169921875,-0.9796142578125,0.1661529541015625
1773251737216401200,3.688401123046875,0.0502166748046875,-0.97479248046875,0.17138671875
1773251737226438100,3.698438232421875,0.053680419921875,-0.9754486083984375,0.1703033447265625
1773251737236475100,3.70847509765625,0.058441162109375,-0.976409912109375,0.1712188720703125
1773251737246512000,3.71851220703125,0.0511016845703125,-0.9796905517578125,0.168792724609375
1773251737256550100,3.728550048828125,0.0465545654296875,-0.986907958984375,0.1657257080078125
1773251737266587100,3.738587158203125,0.05126953125,-0.98577880859375,0.1649627685546875
1773251737276624100,3.7486240234375,0.0570220947265625,-0.9808349609375,0.1652984619140625
1773251737286661000,3.7586611328125,0.0576934814453125,-0.98040771484375,0.16595458984375
1773251737296698000,3.768697998046875,0.0558013916015625,-0.983978271484375,0.1645965576171875
1773251737306736000,3.778736083984375,0.055999755859375,-0.9846343994140625,0.165252685546875
1773251737316773000,3.788773193359375,0.05670166015625,-0.984649658203125,0.167205810546875
1773251737326810000,3.79881005859375,0.0529632568359375,-0.9829559326171875,0.1697540283203125
1773251737336847000,3.80884716796875,0.048004150390625,-0.9848480224609375,0.171630859375
1773251737346885000,3.818885009765625,0.0485382080078125,-0.9850921630859375,0.1704559326171875
1773251737356922000,3.828922119140625,0.0532684326171875,-0.9836883544921875,0.16998291015625
1773251737366959000,3.838958984375,0.055389404296875,-0.9843292236328125,0.1699981689453125
1773251737376996000,3.84899609375,0.0587005615234375,-0.986663818359375,0.1696624755859375
1773251737387034000,3.8590341796875,0.055023193359375,-0.984710693359375,0.1683197021484375
1773251737397071000,3.869071044921875,0.05389404296875,-0.9802703857421875,0.171783447265625
1773251737407108000,3.879108154296875,0.0524444580078125,-0.9806365966796875,0.1734771728515625
1773251737417145000,3.88914501953125,0.0521392822265625,-0.9792633056640625,0.168212890625
1773251737427182000,3.89918212890625,0.0549774169921875,-0.98077392578125,0.16552734375
1773251737437220000,3.90922021484375,0.0553741455078125,-0.98333740234375,0.1660003662109375
1773251737447257000,3.919257080078125,0.05303955078125,-0.982757568359375,0.169921875
1773251737457294300,3.92929443359375,0.051055908203125,-0.9850311279296875,0.1670684814453125
1773251737467331000,3.9393310546875,0.0521087646484375,-0.9853973388671875,0.1656341552734375
1773251737477369000,3.949369140625,0.05450439453125,-0.984619140625,0.1705780029296875
1773251737487406000,3.959406005859375,0.055145263671875,-0.9845123291015625,0.1706085205078125
1773251737497443000,3.969443115234375,0.0543212890625,-0.9881744384765625,0.16705322265625
1773251737507480000,3.97947998046875,0.05792236328125,-0.9871063232421875,0.1668548583984375
1773251737517518000,3.98951806640625,0.061309814453125,-0.98504638671875,0.1664886474609375
1773251737527555300,3.999555419921875,0.0558624267578125,-0.981658935546875,0.1612396240234375
1773251737537592000,4.009592041015625,0.05218505859375,-0.9781494140625,0.158294677734375
1773251737547629000,4.019629150390625,0.0545196533203125,-0.977508544921875,0.1612091064453125
1773251737557666000,4.029666015625,0.057281494140625,-0.9811859130859375,0.1636962890625
1773251737567704300,4.039704345703125,0.057861328125,-0.986968994140625,0.166778564453125
1773251737577741000,4.049740966796875,0.0500640869140625,-0.9876251220703125,0.1700286865234375
1773251737587778000,4.059778076171875,0.0436553955078125,-0.9849853515625,0.1707611083984375
1773251737597815000,4.06981494140625,0.0443115234375,-0.982513427734375,0.1728057861328125
1773251737607853000,4.07985302734375,0.046722412109375,-0.98077392578125,0.1721649169921875
1773251737617890000,4.08989013671875,0.050872802734375,-0.9781036376953125,0.1652374267578125
1773251737627927000,4.099927001953125,0.0555267333984375,-0.9770050048828125,0.1651458740234375
1773251737637964000,4.109964111328125,0.05853271484375,-0.976470947265625,0.165740966796875
1773251737648002300,4.120002197265625,0.0553741455078125,-0.9759979248046875,0.166748046875
1773251737658039600,4.13003955078125,0.0516815185546875,-0.9785919189453125,0.16998291015625
1773251737668076500,4.14007666015625,0.0474700927734375,-0.980560302734375,0.1739501953125
1773251737678113500,4.150113525390625,0.0428314208984375,-0.98553466796875,0.175994873046875
1773251737688150500,4.160150634765625,0.0418548583984375,-0.99176025390625,0.1731719970703125
1773251737698188500,4.1701884765625,0.0447845458984375,-0.9932098388671875,0.1662445068359375
1773251737708225500,4.1802255859375,0.0488128662109375,-0.9899749755859375,0.162139892578125
1773251737718262500,4.190262451171875,0.050079345703125,-0.9847564697265625,0.1621246337890625
1773251737728299500,4.200299560546875,0.0518341064453125,-0.9830322265625,0.1626129150390625
1773251737738337500,4.210337646484375,0.056640625,-0.9824981689453125,0.1603240966796875
1773251737748374500,4.22037451171875,0.0644989013671875,-0.9817657470703125,0.1580810546875
1773251737758411500,4.23041162109375,0.0484619140625,-0.9774932861328125,0.159912109375
1773251737768448500,4.240448486328125,0.048004150390625,-0.9723968505859375,0.164764404296875
1773251737778485500,4.250485595703125,0.053466796875,-0.9720306396484375,0.165252685546875
1773251737788523500,4.2605234375,0.0562591552734375,-0.97479248046875,0.161346435546875
1773251737798560500,4.270560546875,0.0568389892578125,-0.98040771484375,0.15679931640625
1773251737808597500,4.280597412109375,0.05712890625,-0.9865570068359375,0.1535797119140625
1773251737818634500,4.290634521484375,0.0535430908203125,-0.988861083984375,0.155029296875
1773251737828672500,4.300672607421875,0.041961669921875,-0.9864044189453125,0.163299560546875
1773251737838709500,4.31070947265625,0.044525146484375,-0.981597900390625,0.1693572998046875
1773251737848746500,4.32074658203125,0.0636138916015625,-0.984222412109375,0.1692352294921875
1773251737858783500,4.330783447265625,0.07666015625,-0.9859771728515625,0.1699066162109375
1773251737868821500,4.340821533203125,0.0627593994140625,-0.98724365234375,0.16802978515625
1773251737878858500,4.3508583984375,0.0399627685546875,-0.990142822265625,0.172821044921875
1773251737888895500,4.3608955078125,0.0447540283203125,-0.98956298828125,0.1757965087890625
1773251737898932500,4.370932373046875,0.0631561279296875,-0.9954071044921875,0.170379638671875
1773251737908969500,4.380969482421875,0.0675048828125,-0.987548828125,0.1679229736328125
1773251737919007500,4.391007568359375,0.060089111328125,-0.97894287109375,0.1677703857421875
1773251737929044500,4.40104443359375,0.049163818359375,-0.9793701171875,0.16473388671875
1773251737939081500,4.41108154296875,0.0497894287109375,-0.9792633056640625,0.162750244140625
1773251737949118700,4.42111865234375,0.0556793212890625,-0.97869873046875,0.165740966796875
1773251737959156500,4.431156494140625,0.058624267578125,-0.9814300537109375,0.1660614013671875
1773251737969193500,4.441193359375,0.055877685546875,-0.9832000732421875,0.164947509765625
1773251737979230500,4.45123046875,0.05426025390625,-0.982879638671875,0.1658477783203125
1773251737989267700,4.461267822265625,0.0536651611328125,-0.985748291015625,0.164947509765625
1773251737999305500,4.471305419921875,0.054107666015625,-0.986602783203125,0.1636962890625
1773251738009342500,4.481342529296875,0.0555877685546875,-0.98486328125,0.165985107421875
1773251738019379700,4.491379638671875,0.05401611328125,-0.98211669921875,0.164306640625
1773251738029416400,4.50141650390625,0.057220458984375,-0.9820098876953125,0.1646728515625
1773251738039453400,4.511453369140625,0.059906005859375,-0.9814605712890625,0.1661224365234375
1773251738049491500,4.521491455078125,0.0598907470703125,-0.9782867431640625,0.165069580078125
1773251738059528700,4.53152880859375,0.054351806640625,-0.9781341552734375,0.164306640625
1773251738069565400,4.5415654296875,0.05755615234375,-0.977996826171875,0.1681365966796875
1773251738079602400,4.5516025390625,0.064422607421875,-0.9785614013671875,0.164398193359375
1773251738089640700,4.561640625,0.05255126953125,-0.9740753173828125,0.163421630859375
1773251738099677400,4.571677490234375,0.0542755126953125,-0.9728851318359375,0.16815185546875
1773251738109714400,4.58171435546875,0.063568115234375,-0.980133056640625,0.1683197021484375
1773251738119751400,4.59175146484375,0.071441650390625,-0.9851531982421875,0.16461181640625
1773251738129788400,4.601788330078125,0.067291259765625,-0.9876251220703125,0.16778564453125
1773251738139826400,4.611826416015625,0.06121826171875,-0.9861907958984375,0.179718017578125
1773251738149863400,4.621863525390625,0.058990478515625,-0.9839324951171875,0.1767120361328125
1773251738159900400,4.631900390625,0.0603179931640625,-0.9844818115234375,0.1805877685546875
1773251738169937700,4.641937744140625,0.059844970703125,-0.98760986328125,0.174774169921875
1773251738179975400,4.651975341796875,0.0565185546875,-0.99151611328125,0.168487548828125
1773251738190012400,4.662012451171875,0.0604248046875,-0.9915771484375,0.1721954345703125
1773251738200049400,4.67204931640625,0.0612640380859375,-0.98944091796875,0.1681976318359375
1773251738210086700,4.682086669921875,0.0637664794921875,-0.985595703125,0.1661224365234375
1773251738220124400,4.69212451171875,0.069061279296875,-0.9791412353515625,0.172119140625
1773251738230161400,4.702161376953125,0.0688934326171875,-0.9753875732421875,0.173858642578125
1773251738240198700,4.71219873046875,0.06671142578125,-0.976959228515625,0.174041748046875
1773251738250235600,4.722235595703125,0.066986083984375,-0.9804840087890625,0.17327880859375
1773251738260272400,4.7322724609375,0.065582275390625,-0.98291015625,0.1710662841796875
1773251738270310400,4.742310302734375,0.0614776611328125,-0.9833526611328125,0.1721954345703125
1773251738280347600,4.75234765625,0.0599822998046875,-0.9833526611328125,0.16961669921875
1773251738290384600,4.762384521484375,0.0653076171875,-0.982513427734375,0.16644287109375
1773251738300421400,4.77242138671875,0.071929931640625,-0.9776611328125,0.1660003662109375
1773251738310459600,4.782459716796875,0.0730438232421875,-0.9727020263671875,0.16888427734375
1773251738320496600,4.79249658203125,0.0721588134765625,-0.9735260009765625,0.1676177978515625
1773251738330533600,4.80253369140625,0.072509765625,-0.97894287109375,0.165863037109375
1773251738340570400,4.8125703125,0.070404052734375,-0.9893798828125,0.164215087890625
1773251738350607400,4.822607421875,0.06488037109375,-0.9964447021484375,0.1651611328125
1773251738360645600,4.832645751953125,0.0572357177734375,-0.9959869384765625,0.162689208984375
1773251738370682400,4.842682373046875,0.0563201904296875,-0.98681640625,0.1653900146484375
1773251738380719400,4.85271923828125,0.0697479248046875,-0.9810943603515625,0.168701171875
1773251738390756600,4.862756591796875,0.07745361328125,-0.9793548583984375,0.165313720703125
1773251738400794600,4.872794677734375,0.07421875,-0.9839630126953125,0.1662445068359375
1773251738410831400,4.882831298828125,0.0691680908203125,-0.9801025390625,0.1631317138671875
1773251738420868400,4.892868408203125,0.0698699951171875,-0.979217529296875,0.1627044677734375
1773251738430905600,4.902905517578125,0.072265625,-0.98046875,0.164947509765625
1773251738440942600,4.912942626953125,0.0719757080078125,-0.9840087890625,0.168548583984375
1773251738450980400,4.92298046875,0.0740509033203125,-0.979827880859375,0.167327880859375
1773251738461017600,4.933017578125,0.0774078369140625,-0.9744873046875,0.1732940673828125
1773251738471054600,4.9430546875,0.0764312744140625,-0.9785919189453125,0.1788330078125
1773251738481091600,4.953091552734375,0.075042724609375,-0.975982666015625,0.1743316650390625
1773251738491129300,4.96312939453125,0.076446533203125,-0.9752655029296875,0.1665191650390625
1773251738501166600,4.97316650390625,0.0782012939453125,-0.97491455078125,0.1676788330078125
1773251738511203600,4.98320361328125,0.0772552490234375,-0.97625732421875,0.168792724609375
1773251738521240600,4.993240478515625,0.0758819580078125,-0.9806365966796875,0.1705322265625
1773251738531277300,5.00327734375,0.073333740234375,-0.9839019775390625,0.167724609375
1773251738541315600,5.013315673828125,0.0779266357421875,-0.9835052490234375,0.1650238037109375
1773251738551352600,5.0233525390625,0.078155517578125,-0.982025146484375,0.166961669921875
1773251738561389600,5.0333896484375,0.074249267578125,-0.9812774658203125,0.17205810546875
1773251738571426300,5.04342626953125,0.071380615234375,-0.982269287109375,0.16778564453125
1773251738581464600,5.053464599609375,0.075225830078125,-0.9817962646484375,0.162445068359375
1773251738591501600,5.06350146484375,0.078094482421875,-0.9810791015625,0.16326904296875
1773251738601538300,5.073538330078125,0.08013916015625,-0.97882080078125,0.1685791015625
1773251738611575600,5.083575439453125,0.0769195556640625,-0.978759765625,0.170074462890625
1773251738621613600,5.093613525390625,0.070953369140625,-0.9821624755859375,0.163482666015625
1773251738631650600,5.103650634765625,0.0718536376953125,-0.9840545654296875,0.162841796875
1773251738641688000,5.11368798828125,0.072601318359375,-0.9851226806640625,0.162384033203125
1773251738651725000,5.12372509765625,0.0760498046875,-0.983551025390625,0.162200927734375
1773251738661762000,5.133761962890625,0.0805511474609375,-0.98272705078125,0.1652984619140625
1773251738671800000,5.143800048828125,0.083160400390625,-0.98614501953125,0.1667633056640625
1773251738681837000,5.153837158203125,0.0858154296875,-0.9866485595703125,0.1677703857421875
1773251738691874000,5.1638740234375,0.0703582763671875,-0.985443115234375,0.1660003662109375
1773251738701911000,5.1739111328125,0.0507965087890625,-0.979156494140625,0.165252685546875
1773251738711949000,5.183948974609375,0.0577392578125,-0.978179931640625,0.1657867431640625
1773251738721986000,5.193986083984375,0.0789947509765625,-0.98358154296875,0.1597442626953125
1773251738732023000,5.20402294921875,0.0875091552734375,-0.98211669921875,0.1568450927734375
1773251738742060000,5.21406005859375,0.0788726806640625,-0.9741363525390625,0.1605377197265625
1773251738752097000,5.224096923828125,0.0711822509765625,-0.971221923828125,0.164459228515625
1773251738762135000,5.234135009765625,0.0618743896484375,-0.97064208984375,0.165618896484375
1773251738772172000,5.244172119140625,0.0699005126953125,-0.973846435546875,0.16644287109375
1773251738782209300,5.254209228515625,0.0852813720703125,-0.977874755859375,0.1613311767578125
1773251738792246000,5.26424609375,0.097076416015625,-0.984527587890625,0.155059814453125
1773251738802284000,5.274283935546875,0.09423828125,-0.985687255859375,0.15167236328125
1773251738812321000,5.284321044921875,0.073028564453125,-0.983062744140625,0.1533966064453125
1773251738822358000,5.29435791015625,0.0673370361328125,-0.9799346923828125,0.1584014892578125
1773251738832395000,5.30439501953125,0.0809783935546875,-0.9764556884765625,0.162841796875
1773251738842432000,5.314431884765625,0.088592529296875,-0.9743194580078125,0.1617431640625
1773251738852470300,5.32447021484375,0.0850982666015625,-0.9720916748046875,0.160552978515625
1773251738862507000,5.334507080078125,0.0709075927734375,-0.97735595703125,0.16253662109375
1773251738872544000,5.3445439453125,0.06219482421875,-0.98114013671875,0.1645050048828125
1773251738882581000,5.3545810546875,0.069244384765625,-0.9852294921875,0.159271240234375
1773251738892619000,5.364618896484375,0.07965087890625,-0.9888916015625,0.153656005859375
1773251738902656000,5.374656005859375,0.086090087890625,-0.9910125732421875,0.1534576416015625
1773251738912693000,5.38469287109375,0.0892181396484375,-0.9913330078125,0.1536407470703125
1773251738922730000,5.39472998046875,0.0867462158203125,-0.9852447509765625,0.1592864990234375
1773251738932767200,5.404767333984375,0.0821533203125,-0.98046875,0.1625518798828125
1773251738942805000,5.414804931640625,0.0818634033203125,-0.98431396484375,0.16436767578125
1773251738952842000,5.424842041015625,0.08355712890625,-0.9852447509765625,0.1675262451171875
1773251738962879000,5.43487890625,0.0827178955078125,-0.9864044189453125,0.1642913818359375
1773251738972916200,5.444916259765625,0.082855224609375,-0.9884796142578125,0.164642333984375
1773251738982954000,5.4549541015625,0.077117919921875,-0.985687255859375,0.1613006591796875
1773251738992991000,5.464990966796875,0.0762176513671875,-0.98272705078125,0.1613616943359375
1773251739003028200,5.4750283203125,0.0809478759765625,-0.9770965576171875,0.16558837890625
1773251739013065200,5.485065185546875,0.097015380859375,-0.97894287109375,0.1596221923828125
1773251739023102000,5.49510205078125,0.0752716064453125,-0.9792022705078125,0.1591644287109375
1773251739033140000,5.505139892578125,0.0664215087890625,-0.9778289794921875,0.1659393310546875
1773251739043177200,5.51517724609375,0.0853118896484375,-0.9782257080078125,0.16326904296875
1773251739053214000,5.5252138671875,0.0940093994140625,-0.9781646728515625,0.1609954833984375
1773251739063251000,5.5352509765625,0.0844879150390625,-0.97869873046875,0.1640777587890625
1773251739073289200,5.545289306640625,0.07855224609375,-0.9761810302734375,0.1662139892578125
1773251739083326200,5.555326171875,0.0832977294921875,-0.975341796875,0.169952392578125
1773251739093363000,5.565363037109375,0.08837890625,-0.974578857421875,0.169036865234375
1773251739103400000,5.57539990234375,0.0878143310546875,-0.977569580078125,0.1606903076171875
1773251739113438200,5.585438232421875,0.0804290771484375,-0.9766845703125,0.15850830078125
1773251739123475200,5.59547509765625,0.07769775390625,-0.97796630859375,0.160491943359375
1773251739133512000,5.605511962890625,0.0767059326171875,-0.983673095703125,0.1610565185546875
1773251739143549000,5.615548828125,0.08111572265625,-0.988189697265625,0.1633148193359375
1773251739153586200,5.625586181640625,0.081695556640625,-0.9862060546875,0.167388916015625
1773251739163624000,5.6356240234375,0.0795135498046875,-0.9813690185546875,0.167999267578125
1773251739173661000,5.645660888671875,0.0804901123046875,-0.9758148193359375,0.17364501953125
1773251739183698000,5.655697998046875,0.08209228515625,-0.97906494140625,0.1739654541015625
1773251739193735200,5.665735107421875,0.0862884521484375,-0.985382080078125,0.1694793701171875
1773251739203773000,5.67577294921875,0.083404541015625,-0.988311767578125,0.16058349609375
1773251739213810000,5.685809814453125,0.0850830078125,-0.9851226806640625,0.1638031005859375
1773251739223847200,5.69584716796875,0.0869140625,-0.981414794921875,0.1696624755859375
1773251739233884200,5.70588427734375,0.08526611328125,-0.9771728515625,0.170684814453125
1773251739243921200,5.715921142578125,0.0814971923828125,-0.9756622314453125,0.1690673828125
1773251739253959000,5.725958984375,0.0822296142578125,-0.977325439453125,0.1702117919921875
1773251739263996200,5.73599609375,0.0812225341796875,-0.98040771484375,0.17535400390625
1773251739274033200,5.746033203125,0.082611083984375,-0.98236083984375,0.1707000732421875
1773251739284070000,5.75606982421875,0.0837554931640625,-0.9823150634765625,0.1647186279296875
1773251739294108200,5.766108154296875,0.084869384765625,-0.980072021484375,0.1668243408203125
1773251739304145200,5.776145263671875,0.083770751953125,-0.980926513671875,0.1678924560546875
1773251739314182100,5.78618212890625,0.08026123046875,-0.9791107177734375,0.168487548828125
1773251739324219000,5.796218994140625,0.0796051025390625,-0.97625732421875,0.17132568359375
1773251739334255900,5.806255859375,0.079864501953125,-0.97802734375,0.17071533203125
1773251739344294100,5.816294189453125,0.079620361328125,-0.980010986328125,0.16839599609375
1773251739354331100,5.8263310546875,0.0815887451171875,-0.9802398681640625,0.1678619384765625
1773251739364368000,5.836367919921875,0.080169677734375,-0.9808197021484375,0.164581298828125
1773251739374405000,5.846405029296875,0.0771331787109375,-0.98077392578125,0.16680908203125
1773251739384443100,5.856443115234375,0.076568603515625,-0.9794158935546875,0.1721038818359375
1773251739394479900,5.86647998046875,0.0749359130859375,-0.9796600341796875,0.1733245849609375
1773251739404516900,5.876516845703125,0.0770111083984375,-0.9792938232421875,0.1754913330078125
1773251739414554000,5.88655419921875,0.0781707763671875,-0.981201171875,0.1703643798828125
1773251739424591000,5.896591064453125,0.0821533203125,-0.9864501953125,0.167633056640625
1773251739434628900,5.90662890625,0.0838165283203125,-0.9918670654296875,0.1696624755859375
1773251739444666000,5.916666015625,0.0836029052734375,-0.991851806640625,0.168121337890625
1773251739454703000,5.926703125,0.0841064453125,-0.988494873046875,0.1690673828125
1773251739464740000,5.936739990234375,0.084625244140625,-0.98175048828125,0.173370361328125
1773251739474777900,5.94677783203125,0.0870208740234375,-0.9766693115234375,0.1777496337890625
1773251739484815000,5.956815185546875,0.0834808349609375,-0.98095703125,0.1728668212890625
1773251739494852000,5.96685205078125,0.0746307373046875,-0.98199462890625,0.172607421875
1773251739504889000,5.97688916015625,0.0683441162109375,-0.984161376953125,0.1731109619140625
1773251739514926000,5.986926025390625,0.0707244873046875,-0.982177734375,0.170135498046875
1773251739524964000,5.996964111328125,0.0777587890625,-0.98114013671875,0.1700439453125
1773251739535001000,6.0070009765625,0.080810546875,-0.9783935546875,0.1717681884765625
1773251739545038000,6.0170380859375,0.081268310546875,-0.9745330810546875,0.1694488525390625
1773251739555074800,6.02707470703125,0.0803680419921875,-0.9718170166015625,0.1683807373046875
1773251739565113000,6.037113037109375,0.079803466796875,-0.97344970703125,0.17059326171875
1773251739575150000,6.047150146484375,0.078857421875,-0.9723663330078125,0.176483154296875
1773251739585187000,6.05718701171875,0.0792999267578125,-0.9713897705078125,0.1754608154296875
1773251739595224000,6.06722412109375,0.079864501953125,-0.9749755859375,0.1658172607421875
1773251739605262000,6.077261962890625,0.0775146484375,-0.9753570556640625,0.16552734375
1773251739615299000,6.087299072265625,0.075897216796875,-0.9761810302734375,0.1681060791015625
1773251739625335800,6.097335693359375,0.07208251953125,-0.9821014404296875,0.169403076171875
1773251739635373000,6.107373046875,0.0731964111328125,-0.9869537353515625,0.1716156005859375
1773251739645411000,6.1174111328125,0.0768280029296875,-0.984710693359375,0.17498779296875
1773251739655449000,6.127448974609375,0.085662841796875,-0.98797607421875,0.172332763671875
1773251739665486000,6.137486083984375,0.07318115234375,-0.98699951171875,0.1687469482421875
1773251739675523000,6.147523193359375,0.0731201171875,-0.9830322265625,0.167877197265625
1773251739685560300,6.157560302734375,0.079620361328125,-0.9808502197265625,0.165985107421875
1773251739695597000,6.16759716796875,0.0880279541015625,-0.9810028076171875,0.1627197265625
1773251739705635000,6.177635009765625,0.0807342529296875,-0.9819488525390625,0.1607666015625
1773251739715672000,6.187672119140625,0.0704345703125,-0.980987548828125,0.1628570556640625
1773251739725709300,6.197709228515625,0.066864013671875,-0.9765625,0.1706390380859375
1773251739735746000,6.20774609375,0.064208984375,-0.97442626953125,0.1719512939453125
1773251739745784000,6.2177841796875,0.072845458984375,-0.9731292724609375,0.1685943603515625
1773251739755821300,6.2278212890625,0.0893096923828125,-0.974761962890625,0.164276123046875
1773251739765858000,6.237858154296875,0.1055145263671875,-0.979248046875,0.1623992919921875
1773251739775895000,6.24789501953125,0.0997772216796875,-0.98333740234375,0.1587677001953125
1773251739785933000,6.25793310546875,0.07598876953125,-0.98345947265625,0.1611328125
1773251739795970300,6.26797021484375,0.0653839111328125,-0.9835052490234375,0.166961669921875
1773251739806007000,6.278007080078125,0.0776214599609375,-0.98095703125,0.1681365966796875
1773251739816044000,6.2880439453125,0.08697509765625,-0.9796905517578125,0.1648406982421875
1773251739826081000,6.2980810546875,0.084014892578125,-0.9768524169921875,0.1661224365234375
1773251739836119300,6.308119384765625,0.072174072265625,-0.9776763916015625,0.165924072265625
1773251739846156000,6.318156005859375,0.069122314453125,-0.9821014404296875,0.1620330810546875
1773251739856193000,6.328193115234375,0.0764312744140625,-0.9849700927734375,0.156585693359375
1773251739866230000,6.33822998046875,0.082763671875,-0.9874267578125,0.158172607421875
1773251739876268000,6.34826806640625,0.0838165283203125,-0.9886322021484375,0.16143798828125
1773251739886305000,6.358304931640625,0.07635498046875,-0.98638916015625,0.166961669921875
1773251739896342000,6.368342041015625,0.074951171875,-0.9823150634765625,0.1710052490234375
1773251739906379300,6.378379150390625,0.072967529296875,-0.981964111328125,0.167236328125
1773251739916416300,6.388416259765625,0.0728759765625,-0.9834136962890625,0.16546630859375
1773251739926454000,6.3984541015625,0.0717010498046875,-0.983551025390625,0.165802001953125
1773251739936491000,6.408490966796875,0.07159423828125,-0.9826812744140625,0.1657257080078125
1773251739946528300,6.4185283203125,0.0747528076171875,-0.983978271484375,0.1660614013671875
1773251739956565200,6.428565185546875,0.0738067626953125,-0.9840850830078125,0.1677703857421875
1773251739966603000,6.43860302734375,0.071044921875,-0.9849853515625,0.171600341796875
1773251739976640300,6.44864013671875,0.064727783203125,-0.986785888671875,0.1723480224609375
1773251739986677200,6.45867724609375,0.07720947265625,-0.98486328125,0.1727447509765625
1773251739996714200,6.46871435546875,0.0854034423828125,-0.9827423095703125,0.164581298828125
1773251740006751000,6.4787509765625,0.0690765380859375,-0.97711181640625,0.16534423828125
1773251740016789200,6.488789306640625,0.0635223388671875,-0.9710693359375,0.1688995361328125
1773251740026826200,6.498826171875,0.0758514404296875,-0.969940185546875,0.1680450439453125
1773251740036863000,6.508863037109375,0.0796966552734375,-0.9747467041015625,0.1633758544921875
1773251740046900000,6.51889990234375,0.0716705322265625,-0.977203369140625,0.1629486083984375
1773251740056938200,6.528938232421875,0.066680908203125,-0.9815826416015625,0.165496826171875
1773251740066975200,6.538975341796875,0.0654296875,-0.9846038818359375,0.1693267822265625
1773251740077012000,6.549011962890625,0.0673675537109375,-0.987060546875,0.166473388671875
1773251740087049000,6.559049072265625,0.0704193115234375,-0.9884796142578125,0.166290283203125
1773251740097086200,6.569086181640625,0.075347900390625,-0.990875244140625,0.1734466552734375
1773251740107124000,6.5791240234375,0.0724334716796875,-0.989715576171875,0.1746063232421875
1773251740117161000,6.589160888671875,0.070159912109375,-0.9840087890625,0.1710968017578125
1773251740127198200,6.5991982421875,0.0731201171875,-0.9818267822265625,0.1664886474609375
1773251740137235200,6.609235107421875,0.0727386474609375,-0.9844818115234375,0.1659698486328125
1773251740147273000,6.61927294921875,0.0760498046875,-0.9813232421875,0.1668853759765625
1773251740157310000,6.62931005859375,0.0755615234375,-0.981201171875,0.1648101806640625
1773251740167347200,6.63934716796875,0.069549560546875,-0.9801025390625,0.1672210693359375
1773251740177384200,6.64938427734375,0.0688323974609375,-0.9765472412109375,0.16595458984375
1773251740187421200,6.659421142578125,0.0703125,-0.9755401611328125,0.16473388671875
1773251740197459200,6.669459228515625,0.0737762451171875,-0.9742889404296875,0.1644744873046875
1773251740207496200,6.67949609375,0.0752105712890625,-0.9793701171875,0.1627044677734375
1773251740217533200,6.689533203125,0.0746612548828125,-0.9806365966796875,0.1623992919921875
1773251740227570200,6.699570068359375,0.0711212158203125,-0.9817657470703125,0.1640777587890625
1773251740237608200,6.709608154296875,0.0703582763671875,-0.9829254150390625,0.1662750244140625
1773251740247645200,6.719645263671875,0.0706787109375,-0.9836578369140625,0.1633148193359375
1773251740257682200,6.72968212890625,0.0704803466796875,-0.9898681640625,0.1627044677734375
1773251740267719000,6.739718994140625,0.0670623779296875,-0.98828125,0.1641845703125
1773251740277756200,6.749756103515625,0.0628509521484375,-0.9853973388671875,0.1647491455078125
1773251740287794200,6.759794189453125,0.060150146484375,-0.9807891845703125,0.1617431640625
1773251740297831200,6.7698310546875,0.0640869140625,-0.9786376953125,0.1559906005859375
1773251740307868200,6.7798681640625,0.06732177734375,-0.9797210693359375,0.154998779296875
1773251740317905200,6.7899052734375,0.0684967041015625,-0.976348876953125,0.1537017822265625
1773251740327942100,6.799942138671875,0.066162109375,-0.9759368896484375,0.1571502685546875
1773251740337980000,6.80997998046875,0.0647430419921875,-0.9800262451171875,0.1559906005859375
1773251740348017200,6.82001708984375,0.0651397705078125,-0.9809417724609375,0.1533660888671875
1773251740358054100,6.83005419921875,0.070404052734375,-0.9813385009765625,0.1598663330078125
1773251740368091100,6.840091064453125,0.0771484375,-0.980438232421875,0.1660308837890625
1773251740378129200,6.850129150390625,0.0780029296875,-0.983184814453125,0.166290283203125
1773251740388166100,6.860166259765625,0.071136474609375,-0.986297607421875,0.1678619384765625
1773251740398203100,6.870203125,0.0698089599609375,-0.9874725341796875,0.1678314208984375
1773251740408240000,6.880240234375,0.0727691650390625,-0.988128662109375,0.16265869140625
1773251740418277000,6.890277099609375,0.072052001953125,-0.986724853515625,0.1602630615234375
1773251740428315100,6.900315185546875,0.07147216796875,-0.98089599609375,0.162567138671875
1773251740438352100,6.91035205078125,0.0727691650390625,-0.98089599609375,0.162384033203125
1773251740448389000,6.92038916015625,0.0713653564453125,-0.9842529296875,0.1612548828125
1773251740458426000,6.930426025390625,0.065032958984375,-0.99139404296875,0.1587677001953125
1773251740468464000,6.940464111328125,0.0651092529296875,-0.99200439453125,0.158905029296875
1773251740478501000,6.950501220703125,0.0679473876953125,-0.986419677734375,0.1659393310546875
1773251740488538000,6.9605380859375,0.0672607421875,-0.9830169677734375,0.164215087890625
1773251740498575000,6.9705751953125,0.0699005126953125,-0.985595703125,0.158111572265625
1773251740508612000,6.980612060546875,0.0715484619140625,-0.985504150390625,0.159393310546875
1773251740518650000,6.990650146484375,0.0725860595703125,-0.9810028076171875,0.164031982421875
1773251740528687400,7.000687255859375,0.0676422119140625,-0.98236083984375,0.161712646484375
1773251740538724000,7.01072412109375,0.06610107421875,-0.986083984375,0.1624298095703125
1773251740548761000,7.020760986328125,0.0645294189453125,-0.9843597412109375,0.1678924560546875
1773251740558799000,7.030799072265625,0.0614471435546875,-0.980316162109375,0.1668853759765625
1773251740568836000,7.040836181640625,0.0628204345703125,-0.978240966796875,0.1652679443359375
1773251740578873000,7.050873046875,0.0666351318359375,-0.9781494140625,0.167510986328125
1773251740588910000,7.06091015625,0.067901611328125,-0.9762725830078125,0.167083740234375
1773251740598947000,7.070947021484375,0.0688934326171875,-0.97735595703125,0.1662139892578125
1773251740608985000,7.080985107421875,0.0703277587890625,-0.9827728271484375,0.1627655029296875
1773251740619022000,7.09102197265625,0.0710601806640625,-0.9835052490234375,0.16583251953125
1773251740629059000,7.10105908203125,0.07257080078125,-0.98321533203125,0.16619873046875
1773251740639096000,7.111095947265625,0.0701751708984375,-0.98382568359375,0.1657562255859375
1773251740649132300,7.12113232421875,0.066680908203125,-0.9846038818359375,0.1663055419921875
1773251740659169300,7.131169189453125,0.062713623046875,-0.9868011474609375,0.1697845458984375
1773251740669206000,7.1412060546875,0.0618896484375,-0.9862060546875,0.1678619384765625
1773251740679243300,7.1512431640625,0.06689453125,-0.982940673828125,0.1720428466796875
1773251740689280300,7.1612802734375,0.0586700439453125,-0.9807281494140625,0.168792724609375
1773251740699318300,7.171318359375,0.05718994140625,-0.97930908203125,0.1650390625
1773251740709355300,7.181355224609375,0.0683135986328125,-0.983154296875,0.1640472412109375
1773251740719392300,7.191392333984375,0.05804443359375,-0.98419189453125,0.165496826171875
1773251740729429200,7.20142919921875,0.0586395263671875,-0.9808349609375,0.1696319580078125
1773251740739467300,7.21146728515625,0.0754241943359375,-0.9854888916015625,0.16583251953125
1773251740749504300,7.221504150390625,0.0696563720703125,-0.9835968017578125,0.1659393310546875
1773251740759541200,7.231541259765625,0.0590362548828125,-0.974365234375,0.1709136962890625
1773251740769578200,7.241578125,0.056610107421875,-0.970458984375,0.1693878173828125
1773251740779615200,7.251615234375,0.06756591796875,-0.9737548828125,0.171234130859375
1773251740789653200,7.2616533203125,0.0830230712890625,-0.97760009765625,0.1664276123046875
1773251740799690200,7.271690185546875,0.0859222412109375,-0.9817047119140625,0.159332275390625
1773251740809727200,7.281727294921875,0.06597900390625,-0.9875335693359375,0.160369873046875
1773251740819764200,7.29176416015625,0.0513763427734375,-0.9904937744140625,0.1660308837890625
1773251740829802200,7.30180224609375,0.0626983642578125,-0.9881744384765625,0.1708831787109375
1773251740839839200,7.311839111328125,0.0764007568359375,-0.981536865234375,0.1720123291015625
1773251740849876200,7.321876220703125,0.077239990234375,-0.9787750244140625,0.1712646484375
1773251740859913500,7.33191357421875,0.0655364990234375,-0.98016357421875,0.1671600341796875
1773251740869950200,7.3419501953125,0.0556793212890625,-0.9803619384765625,0.164825439453125
1773251740879988200,7.35198828125,0.0597381591796875,-0.9815826416015625,0.165618896484375
1773251740890025200,7.362025146484375,0.0711669921875,-0.9839324951171875,0.16986083984375
1773251740900062200,7.372062255859375,0.0771331787109375,-0.984466552734375,0.1730499267578125
1773251740910099200,7.38209912109375,0.0717315673828125,-0.985443115234375,0.175079345703125
1773251740920136200,7.39213623046875,0.063995361328125,-0.984954833984375,0.177520751953125
1773251740930174500,7.402174560546875,0.0619354248046875,-0.9857940673828125,0.1778411865234375
1773251740940211200,7.412211181640625,0.0648956298828125,-0.984161376953125,0.17840576171875
1773251740950248200,7.422248291015625,0.0658416748046875,-0.980255126953125,0.1752777099609375
1773251740960285200,7.43228515625,0.067718505859375,-0.9808502197265625,0.170440673828125
1773251740970323200,7.4423232421875,0.0692901611328125,-0.9822540283203125,0.16766357421875
1773251740980360200,7.452360107421875,0.0727996826171875,-0.9776763916015625,0.167327880859375
1773251740990397200,7.462397216796875,0.072021484375,-0.9770355224609375,0.1681976318359375
1773251741000434200,7.47243408203125,0.0661163330078125,-0.9793243408203125,0.169403076171875
1773251741010471400,7.482471435546875,0.06341552734375,-0.9790496826171875,0.17193603515625
1773251741020509200,7.49250927734375,0.078887939453125,-0.9808502197265625,0.174224853515625
1773251741030546200,7.502546142578125,0.067657470703125,-0.982879638671875,0.1689453125
1773251741040583200,7.512583251953125,0.050384521484375,-0.97869873046875,0.1706390380859375
1773251741050620400,7.522620361328125,0.063934326171875,-0.9779815673828125,0.1710205078125
1773251741060658200,7.532658203125,0.0806732177734375,-0.9786529541015625,0.1697540283203125
1773251741070695200,7.542695068359375,0.0822906494140625,-0.9829254150390625,0.1701507568359375
1773251741080732400,7.552732421875,0.0792694091796875,-0.9841461181640625,0.17047119140625
1773251741090769400,7.562769287109375,0.077239990234375,-0.9858245849609375,0.17413330078125
1773251741100806100,7.57280615234375,0.0770416259765625,-0.987640380859375,0.1767578125
1773251741110844200,7.58284423828125,0.0772857666015625,-0.9865875244140625,0.1753997802734375
1773251741120881400,7.59288134765625,0.076385498046875,-0.9860992431640625,0.1750946044921875
1773251741130918100,7.602918212890625,0.07391357421875,-0.981842041015625,0.17291259765625
1773251741140955100,7.612955078125,0.074951171875,-0.979095458984375,0.169708251953125
1773251741150993400,7.622993408203125,0.0838165283203125,-0.9788970947265625,0.1684722900390625
1773251741161030400,7.633030517578125,0.090301513671875,-0.978546142578125,0.169281005859375
1773251741171067100,7.643067138671875,0.0850372314453125,-0.9810791015625,0.17388916015625
1773251741181104000,7.653104248046875,0.0750885009765625,-0.9779815673828125,0.1765594482421875
1773251741191141400,7.663141357421875,0.0687255859375,-0.97869873046875,0.180328369140625
1773251741201179400,7.673179443359375,0.072113037109375,-0.97991943359375,0.179962158203125
1773251741211216100,7.683216064453125,0.0760040283203125,-0.97430419921875,0.17828369140625
1773251741221253000,7.693253173828125,0.0792694091796875,-0.97003173828125,0.1779632568359375
1773251741231290400,7.703290283203125,0.0801849365234375,-0.97308349609375,0.1734619140625
1773251741241327400,7.713327392578125,0.0823822021484375,-0.9796905517578125,0.1733245849609375
1773251741251365000,7.723365234375,0.0796051025390625,-0.983123779296875,0.1727294921875
1773251741261402400,7.73340234375,0.0775909423828125,-0.983245849609375,0.180999755859375
1773251741271439400,7.743439453125,0.0713958740234375,-0.9819488525390625,0.185302734375
1773251741281476400,7.753476318359375,0.0667572021484375,-0.9845428466796875,0.1854095458984375
1773251741291514000,7.76351416015625,0.070220947265625,-0.9854278564453125,0.1795654296875
1773251741301551400,7.77355126953125,0.0717926025390625,-0.985809326171875,0.174041748046875
1773251741311588400,7.78358837890625,0.0696868896484375,-0.9832000732421875,0.170928955078125
1773251741321625300,7.793625244140625,0.0684814453125,-0.9800262451171875,0.171539306640625
1773251741331663000,7.8036630859375,0.070526123046875,-0.9738006591796875,0.171356201171875
1773251741341700400,7.813700439453125,0.0713958740234375,-0.9750213623046875,0.17034912109375
1773251741351737300,7.8237373046875,0.0719146728515625,-0.9753265380859375,0.17132568359375
1773251741361774000,7.833774169921875,0.070556640625,-0.9734039306640625,0.1765289306640625
1773251741371811000,7.84381103515625,0.0723419189453125,-0.9741973876953125,0.17822265625
1773251741381849300,7.853849365234375,0.0759735107421875,-0.9813995361328125,0.17529296875
1773251741391886300,7.86388623046875,0.0767669677734375,-0.987762451171875,0.172088623046875
1773251741401923000,7.873923095703125,0.07574462890625,-0.9892425537109375,0.1699371337890625
1773251741411960300,7.883960205078125,0.0783233642578125,-0.985748291015625,0.172210693359375
1773251741421997300,7.893997314453125,0.0829315185546875,-0.9807281494140625,0.1738128662109375
1773251741432035300,7.904035400390625,0.08203125,-0.97454833984375,0.171722412109375
1773251741442072000,7.914072021484375,0.0784454345703125,-0.973052978515625,0.169403076171875
1773251741452109300,7.924109375,0.0740814208984375,-0.974456787109375,0.169403076171875
1773251741462146300,7.934146240234375,0.0724029541015625,-0.97894287109375,0.1695556640625
1773251741472184000,7.94418408203125,0.06976318359375,-0.982330322265625,0.170379638671875
1773251741482221300,7.95422119140625,0.06854248046875,-0.985870361328125,0.17352294921875
1773251741492258300,7.96425830078125,0.07281494140625,-0.9843597412109375,0.17730712890625
1773251741502295300,7.97429541015625,0.0754547119140625,-0.98193359375,0.1776885986328125
1773251741512332300,7.984332275390625,0.0830078125,-0.978851318359375,0.17596435546875
1773251741522370300,7.994370361328125,0.08819580078125,-0.976226806640625,0.172454833984375
1773251741532407300,8.0044072265625,0.0895843505859375,-0.976593017578125,0.1656951904296875
1773251741542444300,8.0144443359375,0.086822509765625,-0.97515869140625,0.16192626953125
1773251741552481300,8.024481201171875,0.087188720703125,-0.9763336181640625,0.1634368896484375
1773251741562519300,8.034519287109376,0.0806121826171875,-0.9798736572265625,0.1636962890625
1773251741572556300,8.044556396484374,0.0754547119140625,-0.98101806640625,0.166412353515625
1773251741582593300,8.05459326171875,0.0695037841796875,-0.980010986328125,0.1712646484375
1773251741592630300,8.06463037109375,0.0710296630859375,-0.977874755859375,0.1753997802734375
1773251741602667300,8.074667236328125,0.0801544189453125,-0.9794921875,0.172637939453125
1773251741612705300,8.084705322265625,0.083038330078125,-0.9802093505859375,0.167236328125
1773251741622742300,8.0947421875,0.08428955078125,-0.9801177978515625,0.162872314453125
1773251741632779300,8.104779296875,0.0832061767578125,-0.9799957275390625,0.1640472412109375
1773251741642816500,8.11481640625,0.078857421875,-0.9818115234375,0.1665496826171875
1773251741652853800,8.124853759765625,0.0766143798828125,-0.9817352294921875,0.168548583984375
1773251741662891500,8.1348916015625,0.075439453125,-0.982635498046875,0.1721954345703125
1773251741672928500,8.144928466796875,0.073455810546875,-0.98480224609375,0.1694488525390625
1773251741682965500,8.154965576171875,0.0771636962890625,-0.983306884765625,0.16864013671875
1773251741693002800,8.165002685546876,0.0843658447265625,-0.984161376953125,0.167816162109375
1773251741703040500,8.17504052734375,0.07366943359375,-0.98272705078125,0.16412353515625
1773251741713077500,8.185077392578124,0.0824127197265625,-0.98089599609375,0.168914794921875
1773251741723114800,8.19511474609375,0.09283447265625,-0.9848785400390625,0.1701507568359375
1773251741733151700,8.20515185546875,0.0922088623046875,-0.9839935302734375,0.1704254150390625
1773251741743188700,8.215188720703125,0.111541748046875,-0.9874420166015625,0.17474365234375
1773251741753226500,8.2252265625,0.1118927001953125,-0.9932098388671875,0.169219970703125
1773251741763263700,8.235263671875,0.078338623046875,-0.9871978759765625,0.1695709228515625
1773251741773300700,8.24530078125,0.0541534423828125,-0.9772491455078125,0.1808929443359375
1773251741783337500,8.25533740234375,0.0524444580078125,-0.973724365234375,0.183197021484375
1773251741793375700,8.265375732421875,0.0657501220703125,-0.9747467041015625,0.18133544921875
1773251741803412700,8.275412841796875,0.0865631103515625,-0.978302001953125,0.180938720703125
1773251741813449700,8.28544970703125,0.0868988037109375,-0.977569580078125,0.179168701171875
1773251741823486500,8.295486572265625,0.0701904296875,-0.97686767578125,0.1731414794921875
1773251741833523500,8.3055234375,0.0694580078125,-0.9745330810546875,0.1728515625
1773251741843561700,8.315561767578124,0.085662841796875,-0.976104736328125,0.1701812744140625
1773251741853598700,8.3255986328125,0.097198486328125,-0.9744873046875,0.166290283203125
1773251741863635500,8.335635498046875,0.092193603515625,-0.9707794189453125,0.1678619384765625
1773251741873672700,8.345672607421875,0.0690155029296875,-0.968170166015625,0.1689453125
1773251741883709700,8.355709716796875,0.0502471923828125,-0.9678955078125,0.170867919921875
1773251741893747500,8.36574755859375,0.0537567138671875,-0.971954345703125,0.1717071533203125
1773251741903784400,8.375784423828126,0.069610595703125,-0.9778594970703125,0.1668548583984375
1773251741913821700,8.38582177734375,0.0777130126953125,-0.9791412353515625,0.1667938232421875
1773251741923858700,8.395858642578125,0.0795440673828125,-0.9759521484375,0.1712646484375
1773251741933896400,8.405896484375,0.0789337158203125,-0.975433349609375,0.1776123046875
1773251741943933700,8.41593359375,0.077789306640625,-0.979949951171875,0.1780853271484375
1773251741953970700,8.425970703125,0.07989501953125,-0.9889373779296875,0.176849365234375
1773251741964007700,8.436007568359376,0.0814208984375,-0.9944610595703125,0.17254638671875
1773251741974044700,8.446044677734376,0.0815887451171875,-0.99090576171875,0.1728363037109375
1773251741984082700,8.456082763671875,0.079437255859375,-0.988372802734375,0.1722869873046875
1773251741994119700,8.46611962890625,0.0762786865234375,-0.984161376953125,0.177947998046875
1773251742004156700,8.47615673828125,0.0753021240234375,-0.9815673828125,0.1839141845703125
1773251742014193400,8.486193359375,0.068695068359375,-0.9814453125,0.1816253662109375
1773251742024231700,8.496231689453126,0.0825347900390625,-0.9825897216796875,0.183197021484375
1773251742034268700,8.5062685546875,0.0839385986328125,-0.985015869140625,0.174560546875
1773251742044305700,8.5163056640625,0.0700225830078125,-0.9786224365234375,0.17047119140625
1773251742054342400,8.52634228515625,0.075042724609375,-0.9723663330078125,0.172760009765625
1773251742064379600,8.536379638671875,0.0874176025390625,-0.9723052978515625,0.1727447509765625
1773251742074417700,8.546417724609375,0.0934295654296875,-0.9748687744140625,0.1705780029296875
1773251742084454700,8.55645458984375,0.086181640625,-0.978485107421875,0.1748809814453125
1773251742094491600,8.56649169921875,0.0767822265625,-0.979888916015625,0.179840087890625
1773251742104528600,8.576528564453126,0.0751953125,-0.98114013671875,0.1793212890625
1773251742114565600,8.586565673828124,0.0788421630859375,-0.9784393310546875,0.1764373779296875
1773251742124603400,8.596603271484375,0.0834503173828125,-0.9770050048828125,0.1751251220703125
1773251742134640600,8.606640625,0.081085205078125,-0.9777679443359375,0.1707763671875
1773251742144677600,8.616677734375,0.080230712890625,-0.97613525390625,0.1678314208984375
1773251742154714600,8.626714599609375,0.0783538818359375,-0.97320556640625,0.17266845703125
1773251742164752600,8.636752685546876,0.075714111328125,-0.97509765625,0.1711578369140625
1773251742174789600,8.64678955078125,0.078277587890625,-0.977874755859375,0.1683349609375
1773251742184826600,8.65682666015625,0.075439453125,-0.9799041748046875,0.1720123291015625
1773251742194863600,8.666863525390625,0.07293701171875,-0.982269287109375,0.174163818359375
1773251742204900900,8.67690087890625,0.077911376953125,-0.9794158935546875,0.17437744140625
1773251742214938600,8.686938720703125,0.0801849365234375,-0.980712890625,0.1749267578125
1773251742224975600,8.6969755859375,0.0807037353515625,-0.984619140625,0.1687469482421875
1773251742235012600,8.7070126953125,0.081512451171875,-0.9830322265625,0.1681671142578125
1773251742245049600,8.717049560546876,0.0831756591796875,-0.98291015625,0.17535400390625
1773251742255087600,8.727087646484375,0.0800018310546875,-0.981719970703125,0.1765289306640625
1773251742265124600,8.73712451171875,0.074493408203125,-0.97900390625,0.1749725341796875
1773251742275161900,8.747161865234375,0.072845458984375,-0.977447509765625,0.17724609375
1773251742285198600,8.757198486328125,0.0729217529296875,-0.98089599609375,0.1759185791015625
1773251742295235600,8.767235595703125,0.0743255615234375,-0.9798736572265625,0.174041748046875
1773251742305273600,8.777273681640626,0.07647705078125,-0.9831390380859375,0.1763458251953125
1773251742315310600,8.787310546875,0.080078125,-0.98431396484375,0.17578125
1773251742325347600,8.79734765625,0.0782318115234375,-0.9791717529296875,0.1759185791015625
1773251742335384600,8.807384521484375,0.075927734375,-0.9783172607421875,0.178619384765625
1773251742345421600,8.817421630859375,0.0752716064453125,-0.980743408203125,0.176513671875
1773251742355459600,8.82745947265625,0.0742950439453125,-0.9791107177734375,0.1800537109375
1773251742365496600,8.83749658203125,0.0729217529296875,-0.98138427734375,0.178924560546875
1773251742375533600,8.847533447265626,0.0719757080078125,-0.98040771484375,0.1761474609375
1773251742385570600,8.857570556640624,0.076171875,-0.97943115234375,0.174957275390625
1773251742395608600,8.867608642578125,0.07794189453125,-0.97821044921875,0.1741790771484375
1773251742405645600,8.8776455078125,0.078948974609375,-0.9786224365234375,0.1760406494140625
1773251742415682600,8.8876826171875,0.0772247314453125,-0.9789581298828125,0.17694091796875
1773251742425719800,8.8977197265625,0.07464599609375,-0.980438232421875,0.17730712890625
1773251742435756800,8.9077568359375,0.071136474609375,-0.98583984375,0.18035888671875
1773251742445794600,8.917794677734374,0.0701446533203125,-0.984130859375,0.1819915771484375
1773251742455831600,8.92783154296875,0.072479248046875,-0.982757568359375,0.1780853271484375
1773251742465868800,8.937868896484375,0.0734405517578125,-0.9828948974609375,0.1712493896484375
1773251742475905500,8.947905517578125,0.0735015869140625,-0.9784698486328125,0.1720733642578125
1773251742485942500,8.957942626953125,0.0691375732421875,-0.9749603271484375,0.1753082275390625
1773251742495980800,8.967980712890625,0.067138671875,-0.9750213623046875,0.1712646484375
1773251742506017800,8.978017822265626,0.07061767578125,-0.97625732421875,0.1740570068359375
1773251742516054500,8.988054443359376,0.0699615478515625,-0.9813690185546875,0.1755828857421875
1773251742526091500,8.998091552734374,0.0673980712890625,-0.9838714599609375,0.17626953125
1773251742536129800,9.0081298828125,0.065185546875,-0.987335205078125,0.175018310546875
1773251742546166800,9.018166748046875,0.0651092529296875,-0.9910736083984375,0.1729583740234375
1773251742556203500,9.02820361328125,0.068756103515625,-0.9853515625,0.172149658203125
1773251742566240500,9.038240478515625,0.0722808837890625,-0.978271484375,0.17071533203125
1773251742576277800,9.04827783203125,0.076019287109375,-0.97283935546875,0.1708526611328125
1773251742586315500,9.0583154296875,0.0802001953125,-0.9746856689453125,0.1737213134765625
1773251742596352500,9.0683525390625,0.06097412109375,-0.9749298095703125,0.1727142333984375
1773251742606389500,9.078389404296875,0.054534912109375,-0.9787445068359375,0.174224853515625
1773251742616426800,9.0884267578125,0.065155029296875,-0.9859466552734375,0.1735076904296875
1773251742626464500,9.098464599609375,0.056640625,-0.99200439453125,0.16864013671875
1773251742636501500,9.10850146484375,0.0597991943359375,-0.9878387451171875,0.1701812744140625
1773251742646538800,9.118538818359376,0.07501220703125,-0.983184814453125,0.16845703125
1773251742656575700,9.12857568359375,0.075927734375,-0.9792633056640625,0.16656494140625
1773251742666612700,9.13861279296875,0.063385009765625,-0.9734649658203125,0.1671142578125
1773251742676650800,9.148650634765625,0.0561065673828125,-0.9724273681640625,0.170928955078125
1773251742686687700,9.158687744140625,0.0662994384765625,-0.97674560546875,0.1734771728515625
1773251742696724700,9.168724853515625,0.0804901123046875,-0.981658935546875,0.16943359375
1773251742706761700,9.17876171875,0.0746002197265625,-0.986297607421875,0.165802001953125
1773251742716798700,9.188798828125,0.0555877685546875,-0.9874114990234375,0.1610260009765625
1773251742726836700,9.198836669921874,0.0504150390625,-0.984283447265625,0.169952392578125
1773251742736874000,9.2088740234375,0.0607757568359375,-0.9831695556640625,0.1762847900390625
1773251742746910700,9.21891064453125,0.0721282958984375,-0.984283447265625,0.1720123291015625
1773251742756947700,9.22894775390625,0.0760040283203125,-0.979705810546875,0.1668853759765625
1773251742766985700,9.23898583984375,0.0706787109375,-0.976226806640625,0.16522216796875
1773251742777022700,9.249022705078126,0.0601959228515625,-0.980499267578125,0.166717529296875
1773251742787059700,9.259059814453124,0.05810546875,-0.983154296875,0.1650543212890625
1773251742797096700,9.2690966796875,0.0654144287109375,-0.9824981689453125,0.170440673828125
1773251742807133700,9.2791337890625,0.0704498291015625,-0.97955322265625,0.1731414794921875
1773251742817171700,9.289171630859375,0.0689544677734375,-0.982421875,0.1780242919921875
1773251742827208700,9.299208740234375,0.0636444091796875,-0.9864654541015625,0.17547607421875
1773251742837245700,9.30924560546875,0.061767578125,-0.9830474853515625,0.1750030517578125
1773251742847282700,9.31928271484375,0.0637054443359375,-0.977752685546875,0.1750335693359375
1773251742857320000,9.32931982421875,0.0680999755859375,-0.9794158935546875,0.1726531982421875
1773251742867357700,9.339357666015625,0.06988525390625,-0.983795166015625,0.1660308837890625
1773251742877394700,9.349394775390625,0.0689239501953125,-0.98431396484375,0.1632232666015625
1773251742887432000,9.359431884765625,0.066619873046875,-0.98419189453125,0.1721649169921875
1773251742897469000,9.369468994140625,0.0584564208984375,-0.983154296875,0.1722412109375
1773251742907506700,9.379506591796876,0.0656585693359375,-0.983154296875,0.173736572265625
1773251742917543700,9.389543701171876,0.0801544189453125,-0.9831390380859375,0.175506591796875
1773251742927581000,9.399580810546874,0.061309814453125,-0.98333740234375,0.1722412109375
1773251742937617700,9.40961767578125,0.053192138671875,-0.9827728271484375,0.176727294921875
1773251742947654700,9.419654541015625,0.05816650390625,-0.9809722900390625,0.1746368408203125
1773251742957693000,9.42969287109375,0.065521240234375,-0.9810333251953125,0.1715545654296875
1773251742967730000,9.43972998046875,0.073089599609375,-0.9800567626953125,0.169219970703125
1773251742977766700,9.4497666015625,0.0709228515625,-0.9791259765625,0.1723175048828125
1773251742987803600,9.4598037109375,0.0665435791015625,-0.9788818359375,0.1759796142578125
1773251742997842000,9.469842041015625,0.0658721923828125,-0.9813385009765625,0.178375244140625
1773251743007878700,9.479878662109375,0.066192626953125,-0.981964111328125,0.17724609375
1773251743017915600,9.48991552734375,0.0636138916015625,-0.9803466796875,0.173980712890625
1773251743027952600,9.49995263671875,0.059844970703125,-0.981689453125,0.1743316650390625
1773251743037990000,9.509989990234375,0.0645294189453125,-0.979217529296875,0.17425537109375
1773251743048027600,9.520027587890626,0.0693511962890625,-0.9763336181640625,0.177276611328125
1773251743058064600,9.530064697265624,0.070037841796875,-0.978485107421875,0.1758880615234375
1773251743068101600,9.5401015625,0.070709228515625,-0.975433349609375,0.18017578125
1773251743078139000,9.550138916015625,0.0670166015625,-0.97662353515625,0.182647705078125
1773251743088175900,9.56017578125,0.0626220703125,-0.9820098876953125,0.1783447265625
1773251743098213600,9.570213623046875,0.064971923828125,-0.9855804443359375,0.177093505859375
1773251743108251000,9.5802509765625,0.0694427490234375,-0.9827117919921875,0.1817169189453125
1773251743118288000,9.590287841796876,0.0688934326171875,-0.9838104248046875,0.1809539794921875
1773251743128324900,9.600324951171874,0.0651702880859375,-0.9814300537109375,0.17578125
1773251743138362600,9.610362548828125,0.0675201416015625,-0.9770355224609375,0.1763763427734375
1773251743148399900,9.62039990234375,0.069305419921875,-0.9761962890625,0.17498779296875
1773251743158436900,9.630436767578125,0.0699310302734375,-0.9792633056640625,0.1765899658203125
1773251743168473600,9.6404736328125,0.0698089599609375,-0.97894287109375,0.1773681640625
1773251743178510600,9.650510498046875,0.0687103271484375,-0.9815673828125,0.1773834228515625
1773251743188548900,9.660548828125,0.0703582763671875,-0.9850006103515625,0.17401123046875
1773251743198585900,9.6705859375,0.071441650390625,-0.9858856201171875,0.1715087890625
1773251743208622600,9.68062255859375,0.073272705078125,-0.9838714599609375,0.173828125
1773251743218659600,9.69065966796875,0.07098388671875,-0.981689453125,0.176116943359375
1773251743228696800,9.70069677734375,0.06951904296875,-0.9812469482421875,0.1796112060546875
1773251743238734800,9.71073486328125,0.07147216796875,-0.9795684814453125,0.177093505859375
1773251743248771600,9.720771484375,0.07037353515625,-0.9777069091796875,0.17572021484375
1773251743258808800,9.730808837890624,0.0715789794921875,-0.976318359375,0.1766815185546875
1773251743268845800,9.740845703125,0.0692596435546875,-0.978546142578125,0.1763458251953125
1773251743278883600,9.750883544921875,0.0697021484375,-0.9799957275390625,0.1747589111328125
1773251743288920600,9.760920654296875,0.069854736328125,-0.982879638671875,0.177825927734375
1773251743298957800,9.770957763671875,0.0732269287109375,-0.982574462890625,0.1800537109375
1773251743308994800,9.780994873046875,0.07568359375,-0.98187255859375,0.18255615234375
1773251743319031800,9.79103173828125,0.0750579833984375,-0.9808807373046875,0.179931640625
1773251743329069800,9.80106982421875,0.0747528076171875,-0.9783782958984375,0.1785125732421875
1773251743339106800,9.81110693359375,0.073699951171875,-0.976898193359375,0.177520751953125
1773251743349143800,9.821143798828125,0.072509765625,-0.9755706787109375,0.171630859375
1773251743359180800,9.831180908203125,0.0711822509765625,-0.9788055419921875,0.171905517578125
1773251743369217500,9.841217529296875,0.0675811767578125,-0.9823150634765625,0.1728515625
1773251743379255800,9.851255859375,0.0668487548828125,-0.9803009033203125,0.1777801513671875
1773251743389292800,9.861292724609376,0.0648040771484375,-0.9782257080078125,0.1799774169921875
1773251743399329500,9.87132958984375,0.0667266845703125,-0.977630615234375,0.177764892578125
1773251743409366800,9.88136669921875,0.0717010498046875,-0.980926513671875,0.1772613525390625
1773251743419404800,9.89140478515625,0.0684814453125,-0.9800262451171875,0.17303466796875
1773251743429441800,9.90144189453125,0.06591796875,-0.981903076171875,0.1695404052734375
1773251743439478500,9.911478515625,0.0692596435546875,-0.9861907958984375,0.1695404052734375
1773251743449515800,9.921515869140626,0.067779541015625,-0.9835662841796875,0.1719207763671875
1773251743459552800,9.931552734375,0.0667724609375,-0.9812774658203125,0.1744537353515625
1773251743469590800,9.9415908203125,0.0693817138671875,-0.9789276123046875,0.180999755859375
1773251743479627800,9.951627685546875,0.0753326416015625,-0.976043701171875,0.1824493408203125
1773251743489664800,9.961664794921875,0.083465576171875,-0.9766845703125,0.1758880615234375
1773251743499701800,9.97170166015625,0.070404052734375,-0.9802093505859375,0.170196533203125
1773251743509738800,9.98173876953125,0.048797607421875,-0.9776763916015625,0.172821044921875
1773251743519776800,9.99177685546875,0.0598907470703125,-0.980438232421875,0.1770477294921875
1773251743529813800,10.001813720703124,0.0688323974609375,-0.9868011474609375,0.1742706298828125
1773251743539850800,10.011850830078124,0.07281494140625,-0.985748291015625,0.1761016845703125
1773251743549887700,10.0218876953125,0.0784912109375,-0.9829254150390625,0.17333984375
1773251743559925800,10.03192578125,0.0778656005859375,-0.9805450439453125,0.172821044921875
1773251743569962800,10.041962646484375,0.0590667724609375,-0.9740447998046875,0.176422119140625
1773251743579999700,10.051999755859375,0.0498809814453125,-0.9710235595703125,0.178985595703125
1773251743590037000,10.062037109375,0.0673370361328125,-0.975067138671875,0.172515869140625
1773251743600073700,10.07207373046875,0.088226318359375,-0.9827423095703125,0.170654296875
1773251743610111700,10.08211181640625,0.0876007080078125,-0.9876708984375,0.1654052734375
1773251743620148700,10.092148681640625,0.063568115234375,-0.984893798828125,0.166473388671875
1773251743630185700,10.102185791015625,0.0491485595703125,-0.98333740234375,0.172149658203125
1773251743640222700,10.11222265625,0.0616912841796875,-0.9821624755859375,0.1710052490234375
1773251743650261000,10.122260986328126,0.0790557861328125,-0.9819488525390625,0.1702880859375
1773251743660298000,10.132298095703124,0.0789642333984375,-0.9783172607421875,0.1686859130859375
1773251743670335000,10.1423349609375,0.0704193115234375,-0.9756011962890625,0.1672515869140625
1773251743680372000,10.1523720703125,0.063446044921875,-0.9793243408203125,0.1648712158203125
1773251743690409000,10.162408935546875,0.0658721923828125,-0.9793853759765625,0.1656494140625
1773251743700447000,10.172447021484375,0.071990966796875,-0.9785003662109375,0.16650390625
1773251743710484000,10.18248388671875,0.076202392578125,-0.9793243408203125,0.1710357666015625
1773251743720521000,10.19252099609375,0.073272705078125,-0.980560302734375,0.173126220703125
1773251743730558000,10.202557861328126,0.0659942626953125,-0.9841766357421875,0.17279052734375
1773251743740595200,10.21259521484375,0.06268310546875,-0.986175537109375,0.171600341796875
1773251743750633000,10.222633056640625,0.0661773681640625,-0.98541259765625,0.169158935546875
1773251743760670000,10.232669921875,0.07183837890625,-0.9875335693359375,0.1654815673828125
1773251743770707000,10.24270703125,0.073150634765625,-0.9884185791015625,0.1626129150390625
1773251743780744200,10.252744140625,0.0745849609375,-0.9899749755859375,0.1612091064453125
1773251743790781000,10.262781005859376,0.07025146484375,-0.981536865234375,0.1636199951171875
1773251743800819000,10.27281884765625,0.0620574951171875,-0.974639892578125,0.1719512939453125
1773251743810856200,10.282856201171874,0.0699462890625,-0.978515625,0.17608642578125
1773251743820893000,10.292892822265625,0.0749359130859375,-0.9818878173828125,0.1737518310546875
1773251743830930000,10.302929931640625,0.0527191162109375,-0.981842041015625,0.1739349365234375
1773251743840968000,10.312968017578125,0.05084228515625,-0.980194091796875,0.1763153076171875
1773251743851005200,10.323005126953126,0.0626068115234375,-0.9808197021484375,0.1702117919921875
1773251743861042000,10.3330419921875,0.071685791015625,-0.982208251953125,0.170562744140625
1773251743871079000,10.343078857421874,0.07293701171875,-0.9816131591796875,0.1694488525390625
1773251743881116000,10.353115966796874,0.0697174072265625,-0.97747802734375,0.1663818359375
1773251743891154200,10.363154296875,0.0697021484375,-0.974090576171875,0.17388916015625
1773251743901191000,10.37319091796875,0.070709228515625,-0.9742431640625,0.1774139404296875
1773251743911228000,10.383227783203125,0.0658721923828125,-0.9778900146484375,0.1771697998046875
1773251743921265000,10.393264892578125,0.0572509765625,-0.983184814453125,0.1735687255859375
1773251743931303000,10.403302978515624,0.054046630859375,-0.9866485595703125,0.1722412109375
1773251743941340000,10.41333984375,0.0584259033203125,-0.988037109375,0.1678466796875
1773251743951377000,10.423376953125,0.0681610107421875,-0.984130859375,0.162994384765625
1773251743961414100,10.4334140625,0.0757598876953125,-0.9792633056640625,0.16973876953125
1773251743971451100,10.443451171875,0.07720947265625,-0.9774169921875,0.1722412109375
1773251743981489000,10.453489013671875,0.0738525390625,-0.9737548828125,0.1728363037109375
1773251743991526000,10.46352587890625,0.0686798095703125,-0.9726715087890625,0.1743927001953125
1773251744001563100,10.473563232421874,0.0642242431640625,-0.97906494140625,0.1737213134765625
1773251744011600100,10.48360009765625,0.0625762939453125,-0.9826202392578125,0.1726837158203125
1773251744021636900,10.493636962890625,0.059326171875,-0.9854278564453125,0.1705169677734375
1773251744031675100,10.503675048828125,0.0582275390625,-0.98480224609375,0.16839599609375
1773251744041712000,10.513712158203125,0.0627899169921875,-0.9837188720703125,0.170928955078125
1773251744051748900,10.523748779296875,0.0659637451171875,-0.9794158935546875,0.17449951171875
1773251744061785900,10.533785888671876,0.06732177734375,-0.97845458984375,0.1721343994140625
1773251744071823000,10.543822998046876,0.0690460205078125,-0.97882080078125,0.1715087890625
1773251744081861000,10.553861083984375,0.0713043212890625,-0.9749755859375,0.1716461181640625
1773251744091897900,10.56389794921875,0.0677947998046875,-0.9765777587890625,0.1719818115234375
1773251744101934800,10.573934814453125,0.0603485107421875,-0.9772186279296875,0.170013427734375
1773251744111972000,10.58397216796875,0.0585784912109375,-0.978515625,0.172821044921875
1773251744122010000,10.594010009765626,0.0601806640625,-0.9808349609375,0.1733245849609375
1773251744132046800,10.604046875,0.0614013671875,-0.9837493896484375,0.1715850830078125
1773251744142083800,10.614083740234374,0.06488037109375,-0.9837646484375,0.1734466552734375
1773251744152121000,10.62412109375,0.0706024169921875,-0.984375,0.1744232177734375
1773251744162158000,10.634157958984375,0.077545166015625,-0.982696533203125,0.1733856201171875
1773251744172195800,10.64419580078125,0.0734100341796875,-0.9762420654296875,0.1721954345703125
1773251744182233000,10.654233154296875,0.06573486328125,-0.9713287353515625,0.174530029296875
1773251744192270000,10.66427001953125,0.062591552734375,-0.974151611328125,0.178558349609375
1773251744202307000,10.67430712890625,0.0643463134765625,-0.9821929931640625,0.1775054931640625
1773251744212343800,10.68434375,0.0610809326171875,-0.9874725341796875,0.17669677734375
1773251744222382000,10.694382080078125,0.05401611328125,-0.990264892578125,0.173187255859375
1773251744232419000,10.704419189453125,0.0548858642578125,-0.9894561767578125,0.171539306640625
1773251744242456000,10.7144560546875,0.0611572265625,-0.986785888671875,0.171173095703125
1773251744252492800,10.724492919921875,0.0660858154296875,-0.9835662841796875,0.1724700927734375
1773251744262531000,10.734531005859376,0.0674591064453125,-0.9794464111328125,0.1721343994140625
1773251744272568000,10.744568115234374,0.06787109375,-0.974945068359375,0.1770172119140625
1773251744282605000,10.75460498046875,0.06396484375,-0.9737701416015625,0.178497314453125
1773251744292642000,10.76464208984375,0.0594940185546875,-0.977630615234375,0.177978515625
1773251744302679000,10.774678955078125,0.0577239990234375,-0.98065185546875,0.1793975830078125
1773251744312717000,10.784717041015625,0.0550537109375,-0.9831695556640625,0.1790008544921875
1773251744322753800,10.79475390625,0.054840087890625,-0.9860382080078125,0.1761932373046875
1773251744332791000,10.804791015625,0.0537872314453125,-0.985443115234375,0.1747283935546875
1773251744342828000,10.814828125,0.0570068359375,-0.982330322265625,0.174652099609375
1773251744352865000,10.824864990234374,0.061614990234375,-0.9768829345703125,0.1748809814453125
1773251744362903000,10.834903076171875,0.0648040771484375,-0.9744415283203125,0.1752166748046875
1773251744372940000,10.84493994140625,0.069671630859375,-0.9780731201171875,0.175750732421875
1773251744382977000,10.85497705078125,0.06744384765625,-0.9821624755859375,0.174072265625
1773251744393014000,10.865013916015625,0.0450897216796875,-0.9805450439453125,0.176055908203125
1773251744403052000,10.875052001953126,0.03912353515625,-0.9803924560546875,0.179718017578125
1773251744413089000,10.885089111328124,0.05255126953125,-0.9873199462890625,0.1807708740234375
1773251744423126000,10.8951259765625,0.0748748779296875,-0.9900054931640625,0.1783447265625
1773251744433163000,10.9051630859375,0.0734405517578125,-0.9836883544921875,0.175567626953125
1773251744443200000,10.915199951171875,0.06787109375,-0.9801177978515625,0.17437744140625
1773251744453238000,10.925238037109375,0.057403564453125,-0.975921630859375,0.172576904296875
1773251744463275000,10.93527490234375,0.0480194091796875,-0.969940185546875,0.1771087646484375
1773251744473312000,10.94531201171875,0.05584716796875,-0.96990966796875,0.1825714111328125
1773251744483349000,10.955348876953124,0.0717620849609375,-0.974884033203125,0.1793060302734375
1773251744493386000,10.965385986328124,0.0802154541015625,-0.981414794921875,0.1792755126953125
1773251744503424000,10.975424072265625,0.0666961669921875,-0.985443115234375,0.177276611328125
1773251744513461000,10.9854609375,0.0465850830078125,-0.9852294921875,0.180633544921875
1773251744523498000,10.995498046875,0.050201416015625,-0.9821319580078125,0.1865692138671875
1773251744533535000,11.005534912109376,0.0697174072265625,-0.9833984375,0.1847381591796875
1773251744543573000,11.015572998046874,0.075286865234375,-0.985626220703125,0.177215576171875
1773251744553610000,11.02560986328125,0.067352294921875,-0.9817352294921875,0.173858642578125
1773251744563647000,11.03564697265625,0.057708740234375,-0.9744873046875,0.1751556396484375
1773251744573684000,11.04568408203125,0.0546417236328125,-0.9763031005859375,0.1750335693359375
1773251744583721000,11.055720947265625,0.0582427978515625,-0.9794769287109375,0.174346923828125
1773251744593759000,11.065759033203125,0.0628204345703125,-0.9781036376953125,0.1767730712890625
1773251744603796000,11.0757958984375,0.0628204345703125,-0.9809722900390625,0.180908203125
1773251744613833000,11.0858330078125,0.0632781982421875,-0.9839324951171875,0.1811981201171875
1773251744623870000,11.095869873046874,0.062408447265625,-0.97930908203125,0.1818084716796875
1773251744633907200,11.1059072265625,0.06109619140625,-0.978424072265625,0.1820526123046875
1773251744643945000,11.115945068359375,0.06219482421875,-0.9822845458984375,0.178009033203125
1773251744653981000,11.12598095703125,0.06695556640625,-0.9839019775390625,0.17681884765625
1773251744664018000,11.136017822265625,0.062652587890625,-0.9817352294921875,0.1761627197265625
1773251744674055200,11.14605517578125,0.0606231689453125,-0.98101806640625,0.175262451171875
1773251744684092200,11.156092041015626,0.0550384521484375,-0.9827423095703125,0.1785888671875
1773251744694130000,11.1661298828125,0.05767822265625,-0.98944091796875,0.1754913330078125
1773251744704167000,11.1761669921875,0.076507568359375,-0.9919586181640625,0.1702728271484375
1773251744714204200,11.1862041015625,0.0596771240234375,-0.9817047119140625,0.1743011474609375
1773251744724241000,11.196240966796875,0.0496978759765625,-0.975189208984375,0.1807403564453125
1773251744734279000,11.20627880859375,0.0581512451171875,-0.9778900146484375,0.1764678955078125
1773251744744316200,11.216316162109376,0.0641021728515625,-0.976287841796875,0.1739501953125
1773251744754353200,11.226353271484374,0.0687408447265625,-0.97711181640625,0.174072265625
1773251744764390000,11.236389892578124,0.063629150390625,-0.9796295166015625,0.17889404296875
1773251744774427000,11.246427001953125,0.0613861083984375,-0.98004150390625,0.1815185546875
1773251744784465200,11.256465087890625,0.068359375,-0.9810943603515625,0.178558349609375
1773251744794502100,11.266502197265625,0.07305908203125,-0.980010986328125,0.171234130859375
1773251744804539000,11.276538818359375,0.066162109375,-0.9764862060546875,0.1686248779296875
1773251744814575900,11.286575927734376,0.0588836669921875,-0.9743499755859375,0.175079345703125
1773251744824613000,11.296613037109376,0.0542144775390625,-0.9765472412109375,0.17669677734375
1773251744834651000,11.30665087890625,0.051788330078125,-0.9815216064453125,0.1715240478515625
1773251744844688000,11.31668798828125,0.0577239990234375,-0.98638916015625,0.1687469482421875
1773251744854724900,11.326724853515625,0.06298828125,-0.98736572265625,0.1696014404296875
1773251744864762000,11.33676220703125,0.0691070556640625,-0.9867095947265625,0.1693572998046875
1773251744874799900,11.3467998046875,0.069732666015625,-0.982818603515625,0.1698760986328125
1773251744884836900,11.3568369140625,0.067535400390625,-0.9776611328125,0.174072265625
1773251744894874000,11.3668740234375,0.065277099609375,-0.9797821044921875,0.1713104248046875
1773251744904911000,11.3769111328125,0.0641021728515625,-0.9816131591796875,0.1684417724609375
1773251744914948000,11.386947998046875,0.0609588623046875,-0.9853363037109375,0.1686553955078125
1773251744924985900,11.39698583984375,0.0589752197265625,-0.987548828125,0.1682586669921875
1773251744935023000,11.407023193359375,0.059906005859375,-0.986846923828125,0.1710968017578125
1773251744945060000,11.41706005859375,0.0632171630859375,-0.984588623046875,0.1693115234375
1773251744955097000,11.42709716796875,0.066009521484375,-0.981475830078125,0.17034912109375
1773251744965133800,11.4371337890625,0.066314697265625,-0.9791717529296875,0.174072265625
1773251744975172000,11.447172119140625,0.0670013427734375,-0.97662353515625,0.1731719970703125
1773251744985209000,11.457208984375,0.064483642578125,-0.9770965576171875,0.1693267822265625
1773251744995245800,11.467245849609375,0.0608978271484375,-0.978790283203125,0.1686859130859375
1773251745005283000,11.477282958984375,0.0590362548828125,-0.9795074462890625,0.1719207763671875
1773251745015321000,11.487321044921876,0.0602569580078125,-0.98333740234375,0.172637939453125
1773251745025358000,11.497358154296874,0.062225341796875,-0.983184814453125,0.1729736328125
1773251745035394800,11.507394775390624,0.0609893798828125,-0.9830169677734375,0.172576904296875
1773251745045432000,11.51743212890625,0.063690185546875,-0.9828033447265625,0.174560546875
1773251745055469000,11.527468994140625,0.0649261474609375,-0.9789581298828125,0.170684814453125
1773251745065506800,11.5375068359375,0.0617523193359375,-0.977325439453125,0.166961669921875
1773251745075544000,11.5475439453125,0.0617218017578125,-0.977783203125,0.1681365966796875
1773251745085581000,11.5575810546875,0.063507080078125,-0.9780426025390625,0.1678619384765625
1773251745095618000,11.5676181640625,0.0618743896484375,-0.979248046875,0.1724395751953125
1773251745105655000,11.577655029296874,0.0604400634765625,-0.982391357421875,0.178314208984375
1773251745115693000,11.587693115234375,0.060302734375,-0.9846954345703125,0.1774444580078125
1773251745125730000,11.59772998046875,0.06378173828125,-0.984832763671875,0.1793670654296875
1773251745135767000,11.60776708984375,0.0631256103515625,-0.9868621826171875,0.1771392822265625
1773251745145804000,11.617803955078125,0.0576629638671875,-0.9865264892578125,0.171905517578125
1773251745155842000,11.627842041015626,0.0558013916015625,-0.9850006103515625,0.1716156005859375
1773251745165879000,11.637879150390624,0.0571441650390625,-0.98126220703125,0.1715545654296875
1773251745175916000,11.647916015625,0.0586395263671875,-0.9790496826171875,0.17156982421875
1773251745185953000,11.657953125,0.0599365234375,-0.977996826171875,0.1742706298828125
1773251745195990000,11.667989990234375,0.06201171875,-0.9773712158203125,0.171600341796875
1773251745206028000,11.678028076171875,0.0621185302734375,-0.98065185546875,0.170928955078125
1773251745216065000,11.68806494140625,0.0595855712890625,-0.979736328125,0.17529296875
1773251745226102000,11.69810205078125,0.0554962158203125,-0.979339599609375,0.177520751953125
1773251745236139000,11.708138916015624,0.0562591552734375,-0.983551025390625,0.17498779296875
1773251745246176000,11.718176025390624,0.057830810546875,-0.9849090576171875,0.17242431640625
1773251745256214000,11.728214111328125,0.0594940185546875,-0.9854583740234375,0.1740875244140625
1773251745266251000,11.7382509765625,0.06781005859375,-0.983062744140625,0.1741790771484375
1773251745276288000,11.7482880859375,0.059326171875,-0.9809722900390625,0.17120361328125
1773251745286325000,11.758324951171875,0.049346923828125,-0.9791259765625,0.1760101318359375
1773251745296362000,11.768362060546876,0.0609893798828125,-0.9807586669921875,0.1756134033203125
1773251745306400000,11.77839990234375,0.0554656982421875,-0.980987548828125,0.173126220703125
1773251745316437000,11.78843701171875,0.060394287109375,-0.97979736328125,0.174835205078125
1773251745326474000,11.798473876953125,0.0762939453125,-0.9825897216796875,0.1736602783203125
1773251745336511000,11.808510986328125,0.0670318603515625,-0.98065185546875,0.1725311279296875
1773251745346549000,11.818549072265625,0.0471343994140625,-0.9745330810546875,0.1777496337890625
1773251745356586000,11.8285859375,0.0467529296875,-0.9764556884765625,0.179901123046875
1773251745366623000,11.838623046875,0.0641021728515625,-0.980682373046875,0.1781768798828125
1773251745376660200,11.84866015625,0.0800018310546875,-0.987060546875,0.1714324951171875
1773251745386697000,11.858697021484375,0.0723724365234375,-0.9852447509765625,0.1686248779296875
1773251745396735000,11.86873486328125,0.04949951171875,-0.9846954345703125,0.171173095703125
1773251745406772000,11.87877197265625,0.0422210693359375,-0.98388671875,0.17242431640625
1773251745416809000,11.88880908203125,0.0594635009765625,-0.9834747314453125,0.171173095703125
1773251745426846000,11.898845947265626,0.072784423828125,-0.9808197021484375,0.17022705078125
1773251745436883000,11.908883056640626,0.0706634521484375,-0.9771270751953125,0.169586181640625
1773251745446921200,11.918921142578125,0.0613250732421875,-0.97607421875,0.1665802001953125
1773251745456958000,11.9289580078125,0.0584564208984375,-0.9772796630859375,0.1665191650390625
1773251745466995000,11.938994873046875,0.0596466064453125,-0.9789276123046875,0.1723785400390625
1773251745477032000,11.949031982421875,0.0641632080078125,-0.98114013671875,0.173431396484375
1773251745487070200,11.9590703125,0.064727783203125,-0.9847412109375,0.16943359375
1773251745497107000,11.96910693359375,0.0612640380859375,-0.9844970703125,0.1707305908203125
1773251745507144000,11.97914404296875,0.05963134765625,-0.9832763671875,0.1729888916015625
1773251745517181000,11.989180908203124,0.05902099609375,-0.986297607421875,0.173187255859375
1773251745527218200,11.99921826171875,0.058929443359375,-0.9853363037109375,0.1721038818359375
1773251745537256000,12.009255859375,0.0605621337890625,-0.985504150390625,0.17169189453125
1773251745547293000,12.01929296875,0.0623016357421875,-0.9836273193359375,0.1712493896484375
1773251745557330000,12.029329833984375,0.0637359619140625,-0.980194091796875,0.172943115234375
1773251745567367200,12.0393671875,0.0609283447265625,-0.9810638427734375,0.17431640625
1773251745577404000,12.04940380859375,0.053070068359375,-0.9807586669921875,0.1721649169921875
1773251745587442000,12.05944189453125,0.06341552734375,-0.9829254150390625,0.1728515625
1773251745597479200,12.069479248046875,0.07025146484375,-0.9874725341796875,0.172027587890625
1773251745607516200,12.07951611328125,0.0509490966796875,-0.9847259521484375,0.1685943603515625
1773251745617553000,12.089552978515625,0.049957275390625,-0.9811553955078125,0.1718902587890625
1773251745627590000,12.09958984375,0.0614013671875,-0.9808197021484375,0.170166015625
1773251745637628200,12.109628173828124,0.0698699951171875,-0.976837158203125,0.1691741943359375
1773251745647665200,12.1196650390625,0.070892333984375,-0.9756622314453125,0.1692962646484375
1773251745657702400,12.129702392578125,0.061767578125,-0.977294921875,0.1687774658203125
1773251745667739400,12.139739501953125,0.0597991943359375,-0.9776763916015625,0.173095703125
1773251745677777400,12.14977734375,0.0628662109375,-0.9803009033203125,0.1755828857421875
1773251745687814400,12.159814453125,0.0637969970703125,-0.981597900390625,0.17486572265625
1773251745697851400,12.169851318359376,0.0568389892578125,-0.9860992431640625,0.1725311279296875
1773251745707888400,12.179888427734374,0.0548858642578125,-0.9903106689453125,0.172454833984375
1773251745717925400,12.18992529296875,0.057586669921875,-0.986083984375,0.1715240478515625
1773251745727963400,12.19996337890625,0.0619964599609375,-0.984283447265625,0.168609619140625
1773251745738000400,12.21000048828125,0.062774658203125,-0.9797515869140625,0.166534423828125
1773251745748037400,12.220037353515625,0.065582275390625,-0.97589111328125,0.168182373046875
1773251745758074400,12.230074462890625,0.0651702880859375,-0.9770050048828125,0.170166015625
1773251745768111400,12.240111328125,0.06103515625,-0.9798736572265625,0.172607421875
1773251745778149400,12.2501494140625,0.0591278076171875,-0.9812774658203125,0.173736572265625
1773251745788186400,12.260186279296875,0.058624267578125,-0.9842987060546875,0.1750640869140625
1773251745798223600,12.2702236328125,0.059783935546875,-0.9865264892578125,0.1745147705078125
1773251745808260400,12.28026025390625,0.0609893798828125,-0.98577880859375,0.1729736328125
1773251745818298400,12.29029833984375,0.061279296875,-0.9842529296875,0.1728973388671875
1773251745828335400,12.30033544921875,0.0646820068359375,-0.980743408203125,0.170867919921875
1773251745838372400,12.310372314453126,0.0661163330078125,-0.979278564453125,0.16607666015625
1773251745848409300,12.320409423828124,0.063751220703125,-0.9803009033203125,0.167144775390625
1773251745858446300,12.3304462890625,0.0604095458984375,-0.9777069091796875,0.169342041015625
1773251745868484400,12.340484375,0.0618438720703125,-0.978271484375,0.1736602783203125
1773251745878521300,12.350521240234375,0.0605010986328125,-0.98004150390625,0.17523193359375
1773251745888558300,12.360558349609375,0.0594482421875,-0.9799957275390625,0.173828125
1773251745898595300,12.37059521484375,0.0615692138671875,-0.9802703857421875,0.1720123291015625
1773251745908632300,12.38063232421875,0.0626373291015625,-0.9832305908203125,0.17352294921875
1773251745918670300,12.39067041015625,0.0606842041015625,-0.9819793701171875,0.1721954345703125
1773251745928707300,12.400707275390625,0.0576171875,-0.98370361328125,0.169921875
1773251745938744300,12.410744384765625,0.0583038330078125,-0.9829864501953125,0.1681060791015625
1773251745948781600,12.420781494140625,0.061248779296875,-0.979217529296875,0.1692047119140625
1773251745958818600,12.430818603515625,0.0621185302734375,-0.9776458740234375,0.1722412109375
1773251745968856300,12.440856201171876,0.062408447265625,-0.9801025390625,0.1719970703125
1773251745978893300,12.450893310546874,0.063385009765625,-0.9820556640625,0.1707763671875
1773251745988930600,12.4609306640625,0.064361572265625,-0.9820556640625,0.170379638671875
1773251745998967300,12.47096728515625,0.063995361328125,-0.985565185546875,0.1707611083984375
1773251746009005300,12.48100537109375,0.0633697509765625,-0.9858245849609375,0.168609619140625
1773251746019042600,12.49104248046875,0.0583953857421875,-0.986480712890625,0.171844482421875
1773251746029079600,12.50107958984375,0.057281494140625,-0.986297607421875,0.17071533203125
1773251746039116300,12.5111162109375,0.0592803955078125,-0.9815826416015625,0.168212890625
1773251746049153300,12.5211533203125,0.0568084716796875,-0.980072021484375,0.170867919921875
1773251746059191600,12.531191650390625,0.0586395263671875,-0.9773712158203125,0.17205810546875
1773251746069228300,12.541228271484375,0.061614990234375,-0.97900390625,0.1702423095703125
1773251746079265300,12.551265380859375,0.0593719482421875,-0.9818267822265625,0.1663818359375
1773251746089302300,12.56130224609375,0.05828857421875,-0.980438232421875,0.170257568359375
1773251746099339500,12.571339599609376,0.0588226318359375,-0.9827117919921875,0.1727752685546875
1773251746109377300,12.581377197265626,0.0595550537109375,-0.98358154296875,0.170867919921875
1773251746119414300,12.591414306640624,0.05908203125,-0.9822998046875,0.1708984375
1773251746129451300,12.601451171875,0.0586395263671875,-0.9838104248046875,0.16888427734375
1773251746139488500,12.611488525390625,0.060516357421875,-0.9834136962890625,0.16876220703125
1773251746149525500,12.621525390625,0.06005859375,-0.9827423095703125,0.1681060791015625
1773251746159563300,12.631563232421875,0.0563812255859375,-0.984619140625,0.168701171875
1773251746169600500,12.6416005859375,0.0609588623046875,-0.9840240478515625,0.169647216796875
1773251746179637500,12.651637451171876,0.0651397705078125,-0.9861602783203125,0.1682586669921875
1773251746189674500,12.661674560546874,0.0480499267578125,-0.9843597412109375,0.1678466796875
1773251746199711200,12.671711181640624,0.0494842529296875,-0.98175048828125,0.1722412109375
1773251746209749500,12.68174951171875,0.06011962890625,-0.9816741943359375,0.1721649169921875
1773251746219786500,12.691786376953125,0.0570526123046875,-0.978179931640625,0.170806884765625
1773251746229823200,12.7018232421875,0.069549560546875,-0.9789581298828125,0.1691131591796875
1773251746239860200,12.711860107421876,0.075714111328125,-0.9836578369140625,0.163909912109375
1773251746249898500,12.7218984375,0.0591278076171875,-0.9774932861328125,0.1690673828125
1773251746259935500,12.731935546875,0.044097900390625,-0.9730682373046875,0.17340087890625
1773251746269972200,12.74197216796875,0.0535888671875,-0.974761962890625,0.1769866943359375
1773251746280009200,12.75200927734375,0.0750732421875,-0.9831085205078125,0.1748046875
1773251746290046500,12.76204638671875,0.0795440673828125,-0.9861907958984375,0.1693115234375
1773251746300084500,12.77208447265625,0.05810546875,-0.9859466552734375,0.1721954345703125
1773251746310121200,12.782121337890626,0.038970947265625,-0.9875335693359375,0.1756591796875
1773251746320158500,12.792158447265624,0.0506439208984375,-0.9875640869140625,0.1743621826171875
1773251746330195500,12.802195556640624,0.0699920654296875,-0.988128662109375,0.17437744140625
1773251746340232400,12.812232421875,0.07342529296875,-0.986480712890625,0.171905517578125
1773251746350270200,12.822270263671875,0.0634002685546875,-0.98193359375,0.1699371337890625
1773251746360307500,12.832307373046875,0.0545654296875,-0.9814300537109375,0.1689300537109375
1773251746370344400,12.842344482421876,0.0515289306640625,-0.978607177734375,0.1696014404296875
1773251746380381400,12.85238134765625,0.0581512451171875,-0.97991943359375,0.1717071533203125
1773251746390419500,12.86241943359375,0.0663909912109375,-0.98583984375,0.1729278564453125
1773251746400456400,12.87245654296875,0.0659942626953125,-0.98468017578125,0.1756591796875
1773251746410493400,12.882493408203125,0.062103271484375,-0.9815216064453125,0.1761016845703125
1773251746420530400,12.892530517578125,0.0582733154296875,-0.98291015625,0.17681884765625
1773251746430567200,12.902567138671875,0.0612945556640625,-0.9845123291015625,0.174957275390625
1773251746440605400,12.91260546875,0.0649871826171875,-0.9827117919921875,0.175079345703125
1773251746450642400,12.922642333984374,0.06536865234375,-0.9824066162109375,0.17437744140625
1773251746460679200,12.93267919921875,0.064239501953125,-0.982818603515625,0.1720428466796875
1773251746470716400,12.94271630859375,0.0615997314453125,-0.9832611083984375,0.1726531982421875
1773251746480753400,12.95275341796875,0.05780029296875,-0.982147216796875,0.172698974609375
1773251746490791400,12.96279150390625,0.0611572265625,-0.9821319580078125,0.1737213134765625
1773251746500828200,12.972828125,0.07537841796875,-0.984039306640625,0.174072265625
1773251746510865400,12.982865478515626,0.059112548828125,-0.9802703857421875,0.17120361328125
1773251746520902400,12.99290234375,0.05303955078125,-0.9753875732421875,0.17333984375
1773251746530939400,13.002939453125,0.06231689453125,-0.9778289794921875,0.1710357666015625
1773251746540977400,13.012977294921875,0.0735015869140625,-0.9776611328125,0.170166015625
1773251746551014400,13.023014404296875,0.0742950439453125,-0.9766693115234375,0.1736907958984375
1773251746561051400,13.033051513671875,0.06671142578125,-0.9770355224609375,0.1746978759765625
1773251746571088400,13.04308837890625,0.062744140625,-0.9752044677734375,0.17645263671875
1773251746581126400,13.05312646484375,0.067108154296875,-0.9790802001953125,0.1760101318359375
1773251746591163400,13.063163330078124,0.0682220458984375,-0.978790283203125,0.1740570068359375
1773251746601200400,13.073200439453124,0.064727783203125,-0.98199462890625,0.171173095703125
1773251746611237400,13.0832373046875,0.061187744140625,-0.9881591796875,0.1714019775390625
1773251746621274400,13.0932744140625,0.0619659423828125,-0.984619140625,0.1719512939453125
