time,seconds_elapsed,z,y,x
1773251498646417200,0.056417236328125,-0.7369842529296875,-1.1811981201171875,-0.2682647705078125
1773251498656454100,0.0664541015625,-0.7348480224609375,-1.1102294921875,-0.3067626953125
1773251498666491100,0.0764912109375,-0.7200927734375,-1.035308837890625,-0.32440185546875
1773251498676527900,0.08652783203125,-0.72064208984375,-0.9984588623046875,-0.3349151611328125
1773251498686564000,0.096564208984375,-0.75982666015625,-0.98089599609375,-0.35955810546875
1773251498696601000,0.10660107421875,-0.759796142578125,-0.9670867919921875,-0.3686676025390625
1773251498706638000,0.11663818359375,-0.700653076171875,-0.930572509765625,-0.3636474609375
1773251498716675000,0.126675048828125,-0.6414947509765625,-0.8778076171875,-0.3605499267578125
1773251498726712000,0.136712158203125,-0.645721435546875,-0.8409576416015625,-0.3509674072265625
1773251498736748000,0.146748046875,-0.6792144775390625,-0.8082427978515625,-0.3374481201171875
1773251498746785300,0.156785400390625,-0.6803131103515625,-0.768768310546875,-0.307159423828125
1773251498756822000,0.166822021484375,-0.65167236328125,-0.7272491455078125,-0.2137451171875
1773251498766859000,0.17685888671875,-0.641571044921875,-0.6838531494140625,-0.13653564453125
1773251498776896000,0.18689599609375,-0.617401123046875,-0.6436309814453125,-0.08587646484375
1773251498786933200,0.196933349609375,-0.56549072265625,-0.609771728515625,0.0087432861328125
1773251498796969200,0.20696923828125,-0.5176849365234375,-0.57672119140625,0.10369873046875
1773251498807006200,0.217006103515625,-0.4971466064453125,-0.5469970703125,0.1323394775390625
1773251498817043000,0.22704296875,-0.5060272216796875,-0.51873779296875,0.0856781005859375
1773251498827080000,0.237079833984375,-0.512969970703125,-0.48919677734375,0.0200347900390625
1773251498837117200,0.2471171875,-0.52020263671875,-0.4582672119140625,-0.00262451171875
1773251498847153200,0.257153076171875,-0.498016357421875,-0.4427490234375,0.08917236328125
1773251498857190100,0.267190185546875,-0.441375732421875,-0.4723358154296875,0.237335205078125
1773251498867227100,0.27722705078125,-0.3863677978515625,-0.518951416015625,0.31524658203125
1773251498877264100,0.28726416015625,-0.357391357421875,-0.5628509521484375,0.2826995849609375
1773251498887301000,0.297301025390625,-0.317230224609375,-0.622711181640625,0.2196502685546875
1773251498897337000,0.307337158203125,-0.2788238525390625,-0.6936187744140625,0.1789398193359375
1773251498907374000,0.3173740234375,-0.2613983154296875,-0.732177734375,0.165740966796875
1773251498917411000,0.3274111328125,-0.235809326171875,-0.7671661376953125,0.2493438720703125
1773251498927448000,0.337447998046875,-0.2236785888671875,-0.8082275390625,0.298065185546875
1773251498937485000,0.347485107421875,-0.2374267578125,-0.811187744140625,0.3131866455078125
1773251498947521300,0.357521240234375,-0.2615814208984375,-0.8037109375,0.3111572265625
1773251498957558300,0.367558349609375,-0.286773681640625,-0.803497314453125,0.2802276611328125
1773251498967595000,0.377594970703125,-0.2817230224609375,-0.8250579833984375,0.254302978515625
1773251498977632000,0.387632080078125,-0.273529052734375,-0.8521881103515625,0.212860107421875
1773251498987669000,0.3976689453125,-0.239166259765625,-0.870513916015625,0.2187652587890625
1773251498997705000,0.407705078125,-0.2073822021484375,-0.9135589599609375,0.273406982421875
1773251499007742200,0.4177421875,-0.205169677734375,-0.976806640625,0.26763916015625
1773251499017779200,0.427779296875,-0.184234619140625,-1.0330810546875,0.249237060546875
1773251499027816000,0.43781591796875,-0.1514739990234375,-1.0904693603515625,0.215576171875
1773251499037853000,0.44785302734375,-0.1336822509765625,-1.1401519775390625,0.1398468017578125
1773251499047890200,0.45789013671875,-0.131103515625,-1.1748199462890625,0.079620361328125
1773251499057926100,0.467926025390625,-0.092803955078125,-1.1737518310546875,0.0529022216796875
1773251499067963100,0.477963134765625,-0.0802154541015625,-1.1459197998046875,0.0560302734375
1773251499078000000,0.488000244140625,-0.1219940185546875,-1.123199462890625,0.080535888671875
1773251499088037000,0.498037109375,-0.16314697265625,-1.070709228515625,0.1097412109375
1773251499098074000,0.50807421875,-0.236724853515625,-1.023956298828125,0.092681884765625
1773251499108110000,0.518110107421875,-0.231353759765625,-0.964996337890625,0.0792236328125
1773251499118147000,0.52814697265625,-0.230926513671875,-0.9278411865234375,0.0702972412109375
1773251499128184000,0.53818408203125,-0.227447509765625,-0.8931427001953125,0.04339599609375
1773251499138221000,0.548220947265625,-0.224151611328125,-0.8911590576171875,0.0299072265625
1773251499148258300,0.55825830078125,-0.226409912109375,-0.893951416015625,0.018890380859375
1773251499158294300,0.568294189453125,-0.200469970703125,-0.863189697265625,0.031707763671875
1773251499168331300,0.578331298828125,-0.1859283447265625,-0.873443603515625,0.04693603515625
1773251499178368000,0.588367919921875,-0.14654541015625,-0.90155029296875,0.055633544921875
1773251499188405000,0.598405029296875,-0.1565399169921875,-0.9349517822265625,0.040618896484375
1773251499198442000,0.60844189453125,-0.1418609619140625,-0.94659423828125,-0.0300750732421875
1773251499208479200,0.618479248046875,-0.1439208984375,-0.9501190185546875,-0.09814453125
1773251499218515200,0.62851513671875,-0.146331787109375,-0.931121826171875,-0.1275177001953125
1773251499228552200,0.63855224609375,-0.130859375,-0.878662109375,-0.1223297119140625
1773251499238589000,0.6485888671875,-0.1505889892578125,-0.87908935546875,-0.0891265869140625
1773251499248626000,0.6586259765625,-0.1643829345703125,-0.8801116943359375,-0.0517730712890625
1773251499258663200,0.6686630859375,-0.1246337890625,-0.884185791015625,-0.0179290771484375
1773251499268699100,0.67869921875,-0.077301025390625,-0.935577392578125,0.0345611572265625
1773251499278736100,0.688736083984375,-0.0940704345703125,-1.0182647705078125,0.01910400390625
1773251499288773000,0.698773193359375,-0.1256866455078125,-1.061492919921875,-0.03106689453125
1773251499298810000,0.70881005859375,-0.082733154296875,-1.0731048583984375,-0.05926513671875
1773251499308847000,0.71884716796875,-0.0324554443359375,-1.1028289794921875,-0.0526123046875
1773251499318883000,0.728883056640625,-0.013153076171875,-1.13134765625,0.0031585693359375
1773251499328920000,0.738920166015625,0.0261688232421875,-1.18603515625,0.1039886474609375
1773251499338957000,0.74895703125,0.0092010498046875,-1.218170166015625,0.189544677734375
1773251499348994000,0.758994140625,-0.0592193603515625,-1.175262451171875,0.2014923095703125
1773251499359031300,0.76903125,-0.087005615234375,-1.127166748046875,0.1515655517578125
1773251499369068000,0.779068115234375,-0.0830535888671875,-1.0995941162109375,0.06884765625
1773251499379104300,0.789104248046875,-0.110076904296875,-1.0566253662109375,0.0168304443359375
1773251499389141000,0.79914111328125,-0.1100616455078125,-1.0052337646484375,0.0226593017578125
1773251499399178000,0.809177978515625,-0.1242523193359375,-0.9709625244140625,0.0490570068359375
1773251499409214500,0.81921435546875,-0.2101287841796875,-0.9223785400390625,0.0607452392578125
1773251499419251700,0.829251708984375,-0.2845611572265625,-0.8790283203125,0.0634918212890625
1773251499429288700,0.839288818359375,-0.32745361328125,-0.85272216796875,0.1155548095703125
1773251499439324700,0.84932470703125,-0.3521575927734375,-0.7923431396484375,0.1490478515625
1773251499449361700,0.859361572265625,-0.2575531005859375,-0.8423004150390625,0.2075347900390625
1773251499459398400,0.8693984375,-0.28216552734375,-0.911041259765625,0.22076416015625
1773251499469435600,0.879435546875,-0.2498321533203125,-0.9531097412109375,0.2339630126953125
1773251499479472600,0.88947265625,-0.1804351806640625,-0.9574127197265625,0.208343505859375
1773251499489508600,0.899508544921875,-0.163665771484375,-0.97467041015625,0.18157958984375
1773251499499545600,0.909545654296875,-0.1277313232421875,-1.002471923828125,0.1480560302734375
1773251499509582600,0.91958251953125,-0.1127777099609375,-0.987396240234375,0.08099365234375
1773251499519619600,0.92961962890625,-0.100433349609375,-0.9406585693359375,0.02984619140625
1773251499529656600,0.939656494140625,-0.0458831787109375,-0.955352783203125,0.000823974609375
1773251499539693600,0.949693603515625,0.0016021728515625,-1.0292816162109375,-0.0023040771484375
1773251499549729500,0.9597294921875,0.0189208984375,-1.065277099609375,0.008697509765625
1773251499559766500,0.9697666015625,0.0583953857421875,-1.1143798828125,-0.0224761962890625
1773251499569803800,0.9798037109375,0.114990234375,-1.1028594970703125,-0.027679443359375
1773251499579840800,0.9898408203125,0.1260986328125,-1.0942230224609375,-0.002166748046875
1773251499589877500,0.99987744140625,0.0728607177734375,-1.0777130126953125,0.0227203369140625
1773251499599913500,1.00991357421875,0.066009521484375,-1.063201904296875,0.0375823974609375
1773251499609950500,1.019950439453125,0.0438079833984375,-1.0335693359375,0.009033203125
1773251499619987500,1.029987548828125,-0.0419464111328125,-0.953033447265625,-0.02288818359375
1773251499630024700,1.040024658203125,-0.0859222412109375,-0.8834686279296875,-0.01019287109375
1773251499640061700,1.050061767578125,-0.09619140625,-0.85150146484375,-0.024261474609375
1773251499650098700,1.0600986328125,-0.092010498046875,-0.8679351806640625,-0.04058837890625
1773251499660134700,1.070134765625,-0.0772857666015625,-0.9524078369140625,-0.0290374755859375
1773251499670171400,1.08017138671875,-0.0469512939453125,-1.0137786865234375,0.0434112548828125
1773251499680208600,1.090208740234375,-0.0298004150390625,-1.044830322265625,0.154693603515625
1773251499690245600,1.10024560546875,-0.0303497314453125,-1.064849853515625,0.2190704345703125
1773251499700282600,1.11028271484375,-0.009796142578125,-1.0481414794921875,0.217437744140625
1773251499710318600,1.120318603515625,0.0145416259765625,-1.0090789794921875,0.1850128173828125
1773251499720355600,1.13035546875,0.0252532958984375,-1.0097808837890625,0.1643218994140625
1773251499730392600,1.140392578125,0.0287017822265625,-1.023101806640625,0.1298675537109375
1773251499740429600,1.1504296875,0.0503692626953125,-1.0402374267578125,0.100311279296875
1773251499750466600,1.160466552734375,0.067962646484375,-1.029998779296875,0.07904052734375
1773251499760503600,1.170503662109375,0.0765380859375,-1.0221710205078125,0.0878753662109375
1773251499770539500,1.18053955078125,0.10626220703125,-1.0006561279296875,0.1091766357421875
1773251499780576800,1.19057666015625,0.13043212890625,-0.9950103759765625,0.1038360595703125
1773251499790613800,1.20061376953125,0.149200439453125,-0.9935455322265625,0.083160400390625
1773251499800650500,1.210650390625,0.1470489501953125,-0.9828033447265625,0.0834503173828125
1773251499810687500,1.2206875,0.1742095947265625,-0.97125244140625,0.0855865478515625
1773251499820724500,1.230724365234375,0.20294189453125,-0.9581146240234375,0.0361785888671875
1773251499830760400,1.240760498046875,0.18017578125,-0.9882659912109375,-0.0461578369140625
1773251499840797700,1.250797607421875,0.234283447265625,-1.0122833251953125,-0.0999908447265625
1773251499850834700,1.260834716796875,0.265899658203125,-1.0347442626953125,-0.120452880859375
1773251499860871700,1.27087158203125,0.2346649169921875,-1.0441436767578125,-0.099761962890625
1773251499870908400,1.280908447265625,0.1948394775390625,-1.0359344482421875,-0.085968017578125
1773251499880944400,1.2909443359375,0.1529083251953125,-1.0112152099609375,-0.088104248046875
1773251499890981600,1.300981689453125,0.154022216796875,-0.96209716796875,-0.0687255859375
1773251499901018600,1.3110185546875,0.1579132080078125,-0.94580078125,-0.0019989013671875
1773251499911055600,1.3210556640625,0.119232177734375,-0.9655609130859375,0.0626068115234375
1773251499921092600,1.331092529296875,0.1175384521484375,-1.0107421875,0.0971527099609375
1773251499931129600,1.341129638671875,0.133209228515625,-1.0482177734375,0.1084136962890625
1773251499941165600,1.35116552734375,0.1068878173828125,-1.0666961669921875,0.1039276123046875
1773251499951202600,1.36120263671875,0.08013916015625,-1.004638671875,0.1069183349609375
1773251499961239600,1.371239501953125,0.073638916015625,-0.9321441650390625,0.123260498046875
1773251499971276500,1.381276611328125,0.045440673828125,-0.9388275146484375,0.084503173828125
1773251499981313800,1.391313720703125,0.0750274658203125,-0.94110107421875,0.0555267333984375
1773251499991350500,1.4013505859375,0.07720947265625,-0.9619140625,0.057647705078125
1773251500001386800,1.41138671875,0.067596435546875,-1.0212249755859375,0.0543975830078125
1773251500011423500,1.421423583984375,0.0854949951171875,-1.027008056640625,0.0583038330078125
1773251500021460500,1.43146044921875,0.093292236328125,-0.9872283935546875,0.062530517578125
1773251500031497500,1.44149755859375,0.081451416015625,-0.9334716796875,0.0391693115234375
1773251500041534700,1.45153466796875,0.084228515625,-0.9050140380859375,-0.0151519775390625
1773251500051571700,1.46157177734375,0.1025238037109375,-0.94293212890625,-0.0707244873046875
1773251500061607700,1.471607666015625,0.136810302734375,-1.0113677978515625,-0.0664215087890625
1773251500071644700,1.481644775390625,0.1830902099609375,-1.0474090576171875,-0.054290771484375
1773251500081681400,1.491681396484375,0.213531494140625,-1.0343170166015625,-0.0498046875
1773251500091718700,1.50171875,0.1962890625,-0.9984130859375,-0.02777099609375
1773251500101755600,1.511755615234375,0.213775634765625,-0.98297119140625,-0.0210113525390625
1773251500111791600,1.52179150390625,0.228057861328125,-0.983734130859375,-0.0493927001953125
1773251500121828600,1.53182861328125,0.1986083984375,-1.0223388671875,-0.027191162109375
1773251500131865600,1.541865478515625,0.2017974853515625,-1.01629638671875,-0.0201263427734375
1773251500141902600,1.551902587890625,0.18145751953125,-0.980865478515625,-0.0493011474609375
1773251500151939600,1.561939697265625,0.1456756591796875,-0.9418792724609375,-0.062225341796875
1773251500161976600,1.5719765625,0.14166259765625,-0.89581298828125,-0.0322418212890625
1773251500172012500,1.582012451171875,0.1215362548828125,-0.92938232421875,0.00201416015625
1773251500182049500,1.592049560546875,0.1016693115234375,-0.9980316162109375,0.0213165283203125
1773251500192086800,1.602086669921875,0.0989990234375,-1.0527191162109375,0.0665130615234375
1773251500202123500,1.61212353515625,0.0743255615234375,-1.072113037109375,0.1125946044921875
1773251500212160500,1.622160400390625,0.0470123291015625,-1.0602264404296875,0.1070709228515625
1773251500222197500,1.632197509765625,0.05120849609375,-1.044952392578125,0.0633392333984375
1773251500232233500,1.6422333984375,0.0661468505859375,-1.055633544921875,0.04229736328125
1773251500242270700,1.652270751953125,0.089752197265625,-1.063751220703125,0.0487213134765625
1773251500252307700,1.6623076171875,0.1026458740234375,-1.05059814453125,0.0877685546875
1773251500262344700,1.6723447265625,0.1314544677734375,-1.030181884765625,0.0753936767578125
1773251500272381400,1.68238134765625,0.189056396484375,-1.0002288818359375,0.0485076904296875
1773251500282418400,1.69241845703125,0.1908721923828125,-1.0124969482421875,0.0472564697265625
1773251500292454400,1.702454345703125,0.20196533203125,-1.031890869140625,0.0425872802734375
1773251500302491600,1.71249169921875,0.2090606689453125,-1.0390777587890625,0.0036163330078125
1773251500312528600,1.722528564453125,0.2180938720703125,-1.0325775146484375,-0.0292205810546875
1773251500322565600,1.732565673828125,0.260467529296875,-1.060699462890625,-0.02001953125
1773251500332602600,1.7426025390625,0.241943359375,-1.067535400390625,0.0145263671875
1773251500342639600,1.7526396484375,0.19927978515625,-1.0679168701171875,0.02227783203125
1773251500352675600,1.762675537109375,0.1797332763671875,-1.0572052001953125,0.015380859375
1773251500362712600,1.772712646484375,0.174835205078125,-1.037445068359375,0.0019073486328125
1773251500372749600,1.78274951171875,0.1643524169921875,-1.024932861328125,-0.000762939453125
1773251500382786600,1.79278662109375,0.1744232177734375,-0.9978485107421875,-0.01702880859375
1773251500392823800,1.80282373046875,0.205291748046875,-0.977325439453125,-0.0509185791015625
1773251500402860300,1.8128603515625,0.2488861083984375,-0.965301513671875,-0.049041748046875
1773251500412897000,1.82289697265625,0.2775421142578125,-0.94586181640625,-0.02215576171875
1773251500422934300,1.832934326171875,0.301910400390625,-0.9273681640625,0.01873779296875
1773251500432971300,1.84297119140625,0.3167572021484375,-0.9244842529296875,0.060638427734375
1773251500443008300,1.85300830078125,0.301300048828125,-0.93804931640625,0.0821380615234375
1773251500453045200,1.863045166015625,0.3237457275390625,-0.9390411376953125,0.082305908203125
1773251500463082000,1.87308203125,0.31756591796875,-0.93341064453125,0.070526123046875
1773251500473118000,1.883117919921875,0.2806854248046875,-0.9333953857421875,0.051666259765625
1773251500483155200,1.8931552734375,0.2227783203125,-0.93695068359375,0.0447235107421875
1773251500493192200,1.903192138671875,0.10321044921875,-0.94940185546875,0.1054534912109375
1773251500503229200,1.913229248046875,0.0583648681640625,-0.9365692138671875,0.139617919921875
1773251500513266200,1.92326611328125,0.0607147216796875,-0.918670654296875,0.101226806640625
1773251500523302100,1.93330224609375,0.056610107421875,-0.9222412109375,0.074737548828125
1773251500533339100,1.943339111328125,0.068206787109375,-0.9307098388671875,0.054840087890625
1773251500543376100,1.953376220703125,0.0904541015625,-0.9419097900390625,0.03564453125
1773251500553413000,1.9634130859375,0.1145477294921875,-0.95111083984375,0.024810791015625
1773251500563450000,1.9734501953125,0.1417083740234375,-0.95562744140625,0.0167388916015625
1773251500573487400,1.9834873046875,0.183380126953125,-0.9499969482421875,0.020416259765625
1773251500583523300,1.9935234375,0.223663330078125,-0.9452972412109375,0.0326080322265625
1773251500593560300,2.003560302734375,0.2635955810546875,-0.9420166015625,0.0447235107421875
1773251500603597000,2.01359716796875,0.309967041015625,-0.9353790283203125,0.060272216796875
1773251500613634000,2.023634033203125,0.351806640625,-0.918426513671875,0.066009521484375
1773251500623671300,2.03367138671875,0.3897247314453125,-0.9080810546875,0.0582275390625
1773251500633708300,2.043708251953125,0.4216766357421875,-0.90625,0.048095703125
1773251500643744300,2.053744140625,0.450042724609375,-0.9022979736328125,0.04705810546875
1773251500653781200,2.06378125,0.4652557373046875,-0.912994384765625,0.035919189453125
1773251500663818200,2.073818359375,0.4708404541015625,-0.9202117919921875,0.0307769775390625
1773251500673855000,2.08385498046875,0.469512939453125,-0.919586181640625,0.0354156494140625
1773251500683892200,2.093892333984375,0.453521728515625,-0.9227447509765625,0.039459228515625
1773251500693929200,2.10392919921875,0.423858642578125,-0.93743896484375,0.0411529541015625
1773251500703965200,2.113965087890625,0.39105224609375,-0.946624755859375,0.0518951416015625
1773251500714002200,2.124002197265625,0.3647003173828125,-0.956024169921875,0.054351806640625
1773251500724039200,2.1340390625,0.348358154296875,-0.953033447265625,0.0537567138671875
1773251500734076200,2.144076171875,0.3374481201171875,-0.9446563720703125,0.0516815185546875
1773251500744113200,2.154113037109375,0.333587646484375,-0.9432220458984375,0.0496826171875
1773251500754150100,2.164150146484375,0.331817626953125,-0.9492645263671875,0.0481719970703125
1773251500764186000,2.17418603515625,0.3295440673828125,-0.9513092041015625,0.0438690185546875
1773251500774223000,2.18422314453125,0.328033447265625,-0.9535675048828125,0.040679931640625
1773251500784260400,2.19426025390625,0.3272247314453125,-0.9543914794921875,0.0369415283203125
1773251500794297300,2.20429736328125,0.3268585205078125,-0.9517364501953125,0.0307159423828125
1773251500804334000,2.214333984375,0.32470703125,-0.9544219970703125,0.0257415771484375
1773251500814371000,2.22437109375,0.3179473876953125,-0.961639404296875,0.016204833984375
1773251500824408300,2.234408203125,0.3139190673828125,-0.967071533203125,0.0175933837890625
1773251500834444300,2.2444443359375,0.3062744140625,-0.9636993408203125,0.021484375
1773251500844481300,2.254481201171875,0.3047027587890625,-0.9597930908203125,0.0244598388671875
1773251500854518300,2.264518310546875,0.2973785400390625,-0.95855712890625,0.023345947265625
1773251500864555000,2.274554931640625,0.290435791015625,-0.96136474609375,0.024688720703125
1773251500874592000,2.284592041015625,0.2777099609375,-0.9539337158203125,0.0232086181640625
1773251500884628200,2.294628173828125,0.2688751220703125,-0.9466705322265625,0.0333251953125
1773251500894665200,2.304665283203125,0.254608154296875,-0.938629150390625,0.0368194580078125
1773251500904702200,2.3147021484375,0.2372283935546875,-0.942291259765625,0.034454345703125
1773251500914739200,2.3247392578125,0.2173614501953125,-0.95098876953125,0.030914306640625
1773251500924776200,2.334776123046875,0.19329833984375,-0.9587554931640625,0.0223388671875
1773251500934813200,2.344813232421875,0.1732177734375,-0.9720611572265625,0.0174407958984375
1773251500944850200,2.35485009765625,0.1505279541015625,-0.977142333984375,0.011932373046875
1773251500954886100,2.36488623046875,0.133941650390625,-0.978118896484375,0.014434814453125
1773251500964923100,2.374923095703125,0.117919921875,-0.9740753173828125,0.01226806640625
1773251500974960000,2.384960205078125,0.1084442138671875,-0.966094970703125,0.0140533447265625
1773251500984997400,2.394997314453125,0.0964813232421875,-0.964935302734375,0.012969970703125
1773251500995034000,2.4050341796875,0.0857086181640625,-0.971527099609375,0.0048828125
1773251501005071000,2.415071044921875,0.07904052734375,-0.977783203125,-0.0025634765625
1773251501015107000,2.425107177734375,0.072662353515625,-0.97894287109375,-0.00384521484375
1773251501025144000,2.43514404296875,0.0685882568359375,-0.9779510498046875,-0.0060577392578125
1773251501035181300,2.445181396484375,0.073944091796875,-0.9844512939453125,0.0066986083984375
1773251501045218300,2.45521826171875,0.0830535888671875,-0.9916839599609375,0.027313232421875
1773251501055255300,2.46525537109375,0.1008148193359375,-0.993804931640625,0.041290283203125
1773251501065292000,2.4752919921875,0.12176513671875,-0.9968109130859375,0.039093017578125
1773251501075328000,2.485327880859375,0.142059326171875,-0.992401123046875,0.0303192138671875
1773251501085365200,2.495365234375,0.160552978515625,-0.9893951416015625,0.022705078125
1773251501095402200,2.50540234375,0.1767578125,-0.985107421875,0.0200958251953125
1773251501105439200,2.515439208984375,0.18475341796875,-0.983734130859375,0.0246429443359375
1773251501115476200,2.525476318359375,0.180938720703125,-0.9854278564453125,0.0258026123046875
1773251501125513000,2.535512939453125,0.170379638671875,-0.989898681640625,0.0227203369140625
1773251501135549200,2.545549072265625,0.1572723388671875,-0.9886474609375,0.0190582275390625
1773251501145586200,2.555586181640625,0.146240234375,-0.9868927001953125,0.020538330078125
1773251501155623200,2.565623046875,0.138763427734375,-0.9861907958984375,0.0257110595703125
1773251501165660200,2.57566015625,0.1368560791015625,-0.986328125,0.032379150390625
1773251501175697200,2.585697265625,0.139678955078125,-0.985565185546875,0.039154052734375
1773251501185734400,2.595734375,0.1466064453125,-0.9830322265625,0.0418243408203125
1773251501195770400,2.605770263671875,0.1537017822265625,-0.981201171875,0.039276123046875
1773251501205807000,2.61580712890625,0.164154052734375,-0.9773101806640625,0.032745361328125
1773251501215844000,2.625843994140625,0.1749420166015625,-0.97637939453125,0.0318450927734375
1773251501225881000,2.635881103515625,0.182525634765625,-0.978179931640625,0.032989501953125
1773251501235918300,2.64591845703125,0.187347412109375,-0.9765777587890625,0.0325164794921875
1773251501245955300,2.655955322265625,0.1867218017578125,-0.9767608642578125,0.028564453125
1773251501255992000,2.665991943359375,0.1799774169921875,-0.9810791015625,0.0244293212890625
1773251501266028300,2.6760283203125,0.170867919921875,-0.9835968017578125,0.01849365234375
1773251501276065000,2.68606494140625,0.161529541015625,-0.9842071533203125,0.017791748046875
1773251501286102300,2.696102294921875,0.151947021484375,-0.987213134765625,0.0183868408203125
1773251501296139300,2.70613916015625,0.14715576171875,-0.98834228515625,0.022796630859375
1773251501306176300,2.71617626953125,0.1488189697265625,-0.9847259521484375,0.0253753662109375
1773251501316213200,2.726213134765625,0.1506195068359375,-0.9866943359375,0.0251312255859375
1773251501326249200,2.736249267578125,0.1530609130859375,-0.9869384765625,0.023529052734375
1773251501336286000,2.746285888671875,0.1561126708984375,-0.9859619140625,0.022369384765625
1773251501346323200,2.7563232421875,0.15960693359375,-0.9849853515625,0.024566650390625
1773251501356360200,2.766360107421875,0.1607513427734375,-0.9842071533203125,0.028167724609375
1773251501366397200,2.776397216796875,0.1620941162109375,-0.9858551025390625,0.0289764404296875
1773251501376434200,2.78643408203125,0.159088134765625,-0.9868011474609375,0.0269012451171875
1773251501386470100,2.79647021484375,0.155548095703125,-0.98614501953125,0.0240936279296875
1773251501396507100,2.806507080078125,0.1521453857421875,-0.9900970458984375,0.0177154541015625
1773251501406543600,2.816543701171875,0.1490936279296875,-0.9908599853515625,0.0134429931640625
1773251501416580900,2.826580810546875,0.14398193359375,-0.9945220947265625,0.007354736328125
1773251501426617900,2.836617919921875,0.137420654296875,-0.995635986328125,0.0005340576171875
1773251501436654800,2.84665478515625,0.13348388671875,-0.996734619140625,0.0001068115234375
1773251501446691800,2.85669189453125,0.13116455078125,-0.9967803955078125,0.0049285888671875
1773251501456727800,2.866727783203125,0.13055419921875,-0.994384765625,0.015594482421875
1773251501466764800,2.876764892578125,0.13128662109375,-0.99273681640625,0.0262451171875
1773251501476801800,2.8868017578125,0.1326446533203125,-0.9927825927734375,0.0321044921875
1773251501486838800,2.8968388671875,0.1374969482421875,-0.990692138671875,0.036865234375
1773251501496875800,2.906875732421875,0.14215087890625,-0.9905853271484375,0.038055419921875
1773251501506912800,2.916912841796875,0.1454925537109375,-0.9884490966796875,0.039337158203125
1773251501516948700,2.92694873046875,0.149627685546875,-0.9854888916015625,0.03662109375
1773251501526986000,2.936986083984375,0.153228759765625,-0.98443603515625,0.0324249267578125
1773251501537022700,2.947022705078125,0.1562347412109375,-0.9821014404296875,0.02911376953125
1773251501547059700,2.957059814453125,0.1548004150390625,-0.9815673828125,0.02447509765625
1773251501557096700,2.9670966796875,0.1501617431640625,-0.9808349609375,0.0194854736328125
1773251501567134000,2.977134033203125,0.14599609375,-0.9808807373046875,0.0141754150390625
1773251501577170000,2.987169921875,0.1394500732421875,-0.98028564453125,0.0117950439453125
1773251501587207000,2.99720703125,0.1336669921875,-0.9823455810546875,0.0122833251953125
1773251501597244000,3.007243896484375,0.131744384765625,-0.9829864501953125,0.018646240234375
1773251501607280600,3.01728076171875,0.1286163330078125,-0.9831695556640625,0.0251922607421875
1773251501617318000,3.02731787109375,0.126708984375,-0.9871978759765625,0.029541015625
1773251501627355000,3.03735498046875,0.123504638671875,-0.9909210205078125,0.0278472900390625
1773251501637392000,3.047391845703125,0.11932373046875,-0.9967041015625,0.022369384765625
1773251501647427800,3.057427734375,0.1120147705078125,-1.0015869140625,0.015106201171875
1773251501657464800,3.06746484375,0.103118896484375,-0.9986419677734375,0.0125885009765625
1773251501667501600,3.07750146484375,0.095947265625,-0.9911651611328125,0.0125885009765625
1773251501677538800,3.087538818359375,0.092132568359375,-0.990875244140625,0.0133514404296875
1773251501687575800,3.097575927734375,0.0871734619140625,-0.990234375,0.0106353759765625
1773251501697612800,3.10761279296875,0.088653564453125,-0.9894561767578125,0.0092620849609375
1773251501707648800,3.117648681640625,0.097015380859375,-0.9907684326171875,0.0121612548828125
1773251501717685800,3.127685791015625,0.111419677734375,-0.9949951171875,0.014739990234375
1773251501727723000,3.137722900390625,0.119110107421875,-0.997161865234375,0.0123748779296875
1773251501737759700,3.147759765625,0.1255950927734375,-0.9955902099609375,0.0102996826171875
1773251501747796700,3.157796630859375,0.1270751953125,-0.9975738525390625,0.0099639892578125
1773251501757833700,3.167833740234375,0.12841796875,-0.9941864013671875,0.0052947998046875
1773251501767869700,3.17786962890625,0.1265106201171875,-0.992431640625,0.0044097900390625
1773251501777907000,3.187906982421875,0.1170196533203125,-0.993377685546875,0.0048675537109375
1773251501787944000,3.19794384765625,0.1065521240234375,-0.991455078125,0.00970458984375
1773251501797980700,3.207980712890625,0.1006927490234375,-0.9892578125,0.01690673828125
1773251501808017700,3.218017578125,0.09857177734375,-0.9867095947265625,0.0164031982421875
1773251501818055000,3.228054931640625,0.1037750244140625,-0.985809326171875,0.013519287109375
1773251501828092000,3.238091796875,0.1113739013671875,-0.9861907958984375,0.01226806640625
1773251501838127900,3.2481279296875,0.1185150146484375,-0.986053466796875,0.009674072265625
1773251501848164900,3.258164794921875,0.1252593994140625,-0.9834136962890625,0.0089874267578125
1773251501858201900,3.268201904296875,0.130035400390625,-0.9830169677734375,0.0107574462890625
1773251501868238600,3.278238525390625,0.1329498291015625,-0.9820709228515625,0.0123443603515625
1773251501878275800,3.28827587890625,0.1331024169921875,-0.9827423095703125,0.0139923095703125
1773251501888312800,3.298312744140625,0.132781982421875,-0.9798736572265625,0.013702392578125
1773251501898349800,3.308349853515625,0.1282806396484375,-0.9813690185546875,0.0112762451171875
1773251501908385800,3.3183857421875,0.1248931884765625,-0.9837646484375,0.0103912353515625
1773251501918422800,3.3284228515625,0.11834716796875,-0.9876556396484375,0.0068817138671875
1773251501928459800,3.338459716796875,0.110687255859375,-0.9870147705078125,0.00128173828125
1773251501938496800,3.348496826171875,0.104888916015625,-0.988616943359375,0.0008697509765625
1773251501948533800,3.35853369140625,0.1026153564453125,-0.9898681640625,0.0040130615234375
1773251501958570800,3.36857080078125,0.1025390625,-0.9923858642578125,0.0111541748046875
1773251501968606700,3.378606689453125,0.1038055419921875,-0.99554443359375,0.0168609619140625
1773251501978644000,3.38864404296875,0.1092529296875,-0.9947509765625,0.0189361572265625
1773251501988681000,3.398680908203125,0.1157989501953125,-0.9936370849609375,0.019073486328125
1773251501998717700,3.4087177734375,0.12042236328125,-0.993408203125,0.0167694091796875
1773251502008754700,3.418754638671875,0.1237335205078125,-0.9928131103515625,0.0145416259765625
1773251502018792000,3.4287919921875,0.1256561279296875,-0.991058349609375,0.01312255859375
1773251502028828000,3.438827880859375,0.123016357421875,-0.990997314453125,0.0158843994140625
1773251502038865000,3.448864990234375,0.1209564208984375,-0.9922027587890625,0.01422119140625
1773251502048902000,3.45890185546875,0.118743896484375,-0.9910888671875,0.00830078125
1773251502058938600,3.468938720703125,0.1133575439453125,-0.9890594482421875,0.0047149658203125
1773251502068975600,3.4789755859375,0.1113128662109375,-0.9887542724609375,0.004425048828125
1773251502079012900,3.489012939453125,0.1125640869140625,-0.989471435546875,0.0049896240234375
1773251502089049900,3.4990498046875,0.1136322021484375,-0.9888763427734375,0.0131988525390625
1773251502099085800,3.5090859375,0.1157989501953125,-0.988128662109375,0.0172119140625
1773251502109122800,3.519122802734375,0.1190338134765625,-0.9889678955078125,0.0179901123046875
1773251502119159800,3.529159912109375,0.11962890625,-0.9895477294921875,0.013946533203125
1773251502129196800,3.53919677734375,0.1174774169921875,-0.9897308349609375,0.01031494140625
1773251502139233800,3.54923388671875,0.116363525390625,-0.9924774169921875,0.0113067626953125
1773251502149270800,3.559270751953125,0.1143035888671875,-0.9951629638671875,0.0111541748046875
1773251502159307800,3.569307861328125,0.114898681640625,-0.9963226318359375,0.01324462890625
1773251502169343700,3.57934375,0.11187744140625,-0.9930877685546875,0.0127410888671875
1773251502179381000,3.589381103515625,0.1131439208984375,-0.9910736083984375,0.0099945068359375
1773251502189417700,3.599417724609375,0.1159820556640625,-0.991607666015625,0.0088653564453125
1773251502199454700,3.609454833984375,0.1186065673828125,-0.992950439453125,0.0112457275390625
1773251502209491700,3.61949169921875,0.1197509765625,-0.9915313720703125,0.016632080078125
1773251502219529000,3.629529052734375,0.122589111328125,-0.9891510009765625,0.0199737548828125
1773251502229565000,3.63956494140625,0.1209564208984375,-0.989593505859375,0.0172271728515625
1773251502239602000,3.649601806640625,0.117584228515625,-0.9893798828125,0.0121307373046875
1773251502249639000,3.659638916015625,0.1133270263671875,-0.989501953125,0.0092620849609375
1773251502259675600,3.669675537109375,0.1119384765625,-0.98809814453125,0.0121002197265625
1773251502269712600,3.679712646484375,0.1147003173828125,-0.986297607421875,0.015899658203125
1773251502279750000,3.68975,0.118621826171875,-0.9838714599609375,0.01947021484375
1773251502289787000,3.699786865234375,0.1233062744140625,-0.986297607421875,0.0209808349609375
1773251502299822800,3.70982275390625,0.127685546875,-0.9868621826171875,0.0218048095703125
1773251502309859800,3.71985986328125,0.1309051513671875,-0.9884185791015625,0.02069091796875
1773251502319896600,3.729896484375,0.12701416015625,-0.9909210205078125,0.0153045654296875
1773251502329933800,3.739933837890625,0.1163787841796875,-0.992645263671875,0.011260986328125
1773251502339970800,3.749970703125,0.1112518310546875,-0.9878997802734375,0.0139007568359375
1773251502350007800,3.7600078125,0.10650634765625,-0.988739013671875,0.0179290771484375
1773251502360043800,3.770043701171875,0.1067352294921875,-0.990203857421875,0.0185089111328125
1773251502370080800,3.780080810546875,0.10711669921875,-0.989166259765625,0.01605224609375
1773251502380118000,3.790117919921875,0.113037109375,-0.988739013671875,0.014617919921875
1773251502390154800,3.80015478515625,0.1212158203125,-0.9879913330078125,0.0174407958984375
1773251502400191700,3.810191650390625,0.1303253173828125,-0.990264892578125,0.019866943359375
1773251502410229200,3.820229248046875,0.1374664306640625,-0.989654541015625,0.02215576171875
1773251502420266200,3.830266357421875,0.1378173828125,-0.988677978515625,0.0222625732421875
1773251502430302200,3.84030224609375,0.134674072265625,-0.9900970458984375,0.016448974609375
1773251502440339200,3.850339111328125,0.1313934326171875,-0.9900054931640625,0.013885498046875
1773251502450376000,3.8603759765625,0.12353515625,-0.988128662109375,0.01483154296875
1773251502460413000,3.870412841796875,0.113494873046875,-0.9897918701171875,0.0142974853515625
1773251502470450200,3.8804501953125,0.10418701171875,-0.99169921875,0.0109100341796875
1773251502480487200,3.890487060546875,0.0991973876953125,-0.9894561767578125,0.0126953125
1773251502490524200,3.900524169921875,0.1007537841796875,-0.9901275634765625,0.01617431640625
1773251502500560100,3.91056005859375,0.10662841796875,-0.9930572509765625,0.0182952880859375
1773251502510596900,3.920596923828125,0.1119384765625,-0.992919921875,0.016021728515625
1773251502520634000,3.930634033203125,0.1181182861328125,-0.9948272705078125,0.013031005859375
1773251502530671000,3.940671142578125,0.121826171875,-0.9972991943359375,0.0140533447265625
1773251502540708000,3.9507080078125,0.1219940185546875,-0.995513916015625,0.0111846923828125
1773251502550745000,3.9607451171875,0.121551513671875,-0.996734619140625,0.009765625
1773251502560782000,3.970781982421875,0.1159210205078125,-0.9952239990234375,0.009552001953125
1773251502570818300,3.980818359375,0.111175537109375,-0.9925994873046875,0.0084075927734375
1773251502580855000,3.99085498046875,0.1097869873046875,-0.9940948486328125,0.0099334716796875
1773251502590892000,4.00089208984375,0.1134033203125,-0.9931640625,0.0157623291015625
1773251502600929000,4.010928955078125,0.1195068359375,-0.992919921875,0.0174407958984375
1773251502610966300,4.02096630859375,0.1229705810546875,-0.99310302734375,0.0123138427734375
1773251502621003300,4.031003173828125,0.1249542236328125,-0.991455078125,0.010162353515625
1773251502631039200,4.041039306640625,0.1270751953125,-0.989471435546875,0.0128173828125
1773251502641076000,4.051075927734375,0.1253662109375,-0.988433837890625,0.014404296875
1773251502651113000,4.061113037109375,0.121490478515625,-0.98773193359375,0.016876220703125
1773251502661150000,4.07114990234375,0.120513916015625,-0.9866790771484375,0.0195465087890625
1773251502671187200,4.081187255859375,0.1228485107421875,-0.9842529296875,0.021759033203125
1773251502681224200,4.09122412109375,0.1270294189453125,-0.9853363037109375,0.019134521484375
1773251502691261000,4.101260986328125,0.12933349609375,-0.98565673828125,0.017364501953125
1773251502701297200,4.111297119140625,0.1295623779296875,-0.986358642578125,0.0162811279296875
1773251502711334000,4.121333984375,0.1321868896484375,-0.984344482421875,0.0154876708984375
1773251502721371100,4.13137109375,0.1338348388671875,-0.9869232177734375,0.0213775634765625
1773251502731408100,4.141408203125,0.1320037841796875,-0.9887847900390625,0.0204010009765625
1773251502741445000,4.151445068359375,0.1286773681640625,-0.98919677734375,0.0169525146484375
1773251502751482000,4.161482177734375,0.12548828125,-0.989501953125,0.0154571533203125
1773251502761519000,4.17151904296875,0.123748779296875,-0.9896087646484375,0.0139923095703125
1773251502771555000,4.18155517578125,0.12261962890625,-0.98992919921875,0.016021728515625
1773251502781592000,4.191592041015625,0.120574951171875,-0.9903564453125,0.015960693359375
1773251502791629000,4.201629150390625,0.12359619140625,-0.9892730712890625,0.0180511474609375
1773251502801666000,4.211666015625,0.1248626708984375,-0.9902801513671875,0.0166473388671875
1773251502811703300,4.221703369140625,0.127105712890625,-0.992645263671875,0.009613037109375
1773251502821740000,4.231739990234375,0.1260833740234375,-0.99322509765625,0.00628662109375
1773251502831777000,4.241777099609375,0.1256103515625,-0.9929656982421875,0.006683349609375
1773251502841813000,4.25181298828125,0.126861572265625,-0.99383544921875,0.0109405517578125
1773251502851850000,4.26185009765625,0.1248931884765625,-0.9914093017578125,0.0149078369140625
1773251502861887000,4.271886962890625,0.1243438720703125,-0.992218017578125,0.015167236328125
1773251502871924200,4.28192431640625,0.1236572265625,-0.9932403564453125,0.0181121826171875
1773251502881961200,4.291961181640625,0.1231231689453125,-0.9922637939453125,0.0171661376953125
1773251502891998000,4.301998046875,0.120697021484375,-0.99346923828125,0.0141143798828125
1773251502902035000,4.312034912109375,0.1173553466796875,-0.99212646484375,0.01324462890625
1773251502912071000,4.32207080078125,0.1180877685546875,-0.990264892578125,0.013458251953125
1773251502922108200,4.332108154296875,0.1192626953125,-0.9890594482421875,0.0154266357421875
1773251502932145200,4.342145263671875,0.1229705810546875,-0.98992919921875,0.015838623046875
1773251502942182100,4.35218212890625,0.126129150390625,-0.9901885986328125,0.0164031982421875
1773251502952219100,4.36221923828125,0.129974365234375,-0.9903411865234375,0.013763427734375
1773251502962256100,4.372256103515625,0.1306304931640625,-0.989349365234375,0.01617431640625
1773251502972293000,4.382293212890625,0.12860107421875,-0.9888458251953125,0.0190887451171875
1773251502982329000,4.3923291015625,0.123199462890625,-0.9883270263671875,0.018218994140625
1773251502992366000,4.402365966796875,0.11883544921875,-0.9893341064453125,0.0157623291015625
1773251503002403000,4.412403076171875,0.11181640625,-0.9892425537109375,0.016693115234375
1773251503012440300,4.4224404296875,0.1117095947265625,-0.9889373779296875,0.017669677734375
1773251503022477000,4.43247705078125,0.1136016845703125,-0.9906463623046875,0.0211029052734375
1773251503032514000,4.44251416015625,0.1193084716796875,-0.990081787109375,0.02508544921875
1773251503042551000,4.452551025390625,0.1241607666015625,-0.9898681640625,0.0257568359375
1773251503052587000,4.4625869140625,0.1258544921875,-0.9890289306640625,0.0231475830078125
1773251503062624000,4.4726240234375,0.124908447265625,-0.991485595703125,0.0171356201171875
1773251503072661200,4.4826611328125,0.121826171875,-0.989471435546875,0.01318359375
1773251503082698000,4.492697998046875,0.118438720703125,-0.990936279296875,0.0150604248046875
1773251503092735000,4.50273486328125,0.1136932373046875,-0.992889404296875,0.0200347900390625
1773251503102772000,4.51277197265625,0.111602783203125,-0.9930877685546875,0.0230865478515625
1773251503112808000,4.522807861328125,0.1121673583984375,-0.9920501708984375,0.02471923828125
1773251503122845200,4.53284521484375,0.1116943359375,-0.9941864013671875,0.02191162109375
1773251503132882200,4.542882080078125,0.1161041259765625,-0.994903564453125,0.021270751953125
1773251503142919200,4.552919189453125,0.1219635009765625,-0.995330810546875,0.0245819091796875
1773251503152956000,4.562955810546875,0.1269378662109375,-0.994537353515625,0.0291900634765625
1773251503162993200,4.5729931640625,0.1337127685546875,-0.99530029296875,0.0338287353515625
1773251503173030100,4.583030029296875,0.137237548828125,-0.9928131103515625,0.03741455078125
1773251503183067100,4.593067138671875,0.1345062255859375,-0.9905853271484375,0.03216552734375
1773251503193103000,4.60310302734375,0.13494873046875,-0.986602783203125,0.02655029296875
1773251503203140000,4.61314013671875,0.1285552978515625,-0.9867401123046875,0.0214385986328125
1773251503213177000,4.623177001953125,0.1237030029296875,-0.9887237548828125,0.023681640625
1773251503223214000,4.633214111328125,0.1175689697265625,-0.9884796142578125,0.023345947265625
1773251503233251000,4.6432509765625,0.1135101318359375,-0.9869842529296875,0.02581787109375
1773251503243288000,4.6532880859375,0.1142730712890625,-0.987152099609375,0.0234222412109375
1773251503253325000,4.663324951171875,0.1186065673828125,-0.98773193359375,0.022003173828125
1773251503263361000,4.673361083984375,0.1220855712890625,-0.986175537109375,0.01849365234375
1773251503273398300,4.683398193359375,0.1263427734375,-0.98553466796875,0.0204620361328125
1773251503283435000,4.69343505859375,0.12982177734375,-0.986328125,0.023193359375
1773251503293472000,4.703471923828125,0.1328277587890625,-0.98541259765625,0.0252227783203125
1773251503303509000,4.713509033203125,0.138671875,-0.9875030517578125,0.02423095703125
1773251503313546200,4.723546142578125,0.1392669677734375,-0.988250732421875,0.0218658447265625
1773251503323583200,4.733583251953125,0.1371002197265625,-0.98736572265625,0.021453857421875
1773251503333619200,4.743619140625,0.1332550048828125,-0.9893646240234375,0.016937255859375
1773251503343656000,4.753656005859375,0.1274261474609375,-0.988922119140625,0.0183258056640625
1773251503353693000,4.76369287109375,0.1234588623046875,-0.9875030517578125,0.0188446044921875
1773251503363730200,4.773730224609375,0.12109375,-0.99005126953125,0.015625
1773251503373767200,4.78376708984375,0.1195526123046875,-0.9897918701171875,0.0117950439453125
1773251503383804200,4.79380419921875,0.1182708740234375,-0.9893951416015625,0.0101318359375
1773251503393841200,4.803841064453125,0.1178131103515625,-0.98992919921875,0.014251708984375
1773251503403876400,4.81387646484375,0.12078857421875,-0.9913330078125,0.01910400390625
1773251503413913300,4.823913330078125,0.126983642578125,-0.989013671875,0.024261474609375
1773251503423950000,4.8339501953125,0.1334991455078125,-0.989471435546875,0.028167724609375
1773251503433987300,4.8439873046875,0.13751220703125,-0.9894561767578125,0.0279083251953125
1773251503444024300,4.8540244140625,0.1432952880859375,-0.9878082275390625,0.0245819091796875
1773251503454061300,4.864061279296875,0.14691162109375,-0.98699951171875,0.024139404296875
1773251503464098300,4.874098388671875,0.14654541015625,-0.9862823486328125,0.025054931640625
1773251503474134300,4.88413427734375,0.1428375244140625,-0.98876953125,0.0233001708984375
1773251503484171300,4.894171142578125,0.13763427734375,-0.989776611328125,0.023406982421875
1773251503494208300,4.904208251953125,0.1308441162109375,-0.9887847900390625,0.022857666015625
1773251503504245200,4.914245361328125,0.1254730224609375,-0.98956298828125,0.022430419921875
1773251503514282200,4.9242822265625,0.1231536865234375,-0.9902191162109375,0.0228271484375
1773251503524319500,4.934319580078125,0.1272735595703125,-0.9899749755859375,0.0269012451171875
1773251503534356500,4.9443564453125,0.1314697265625,-0.9900054931640625,0.0271453857421875
1773251503544392400,4.954392333984375,0.134918212890625,-0.98858642578125,0.02520751953125
1773251503554429200,4.96442919921875,0.1370086669921875,-0.98992919921875,0.0241241455078125
1773251503564466200,4.974466064453125,0.138092041015625,-0.9910125732421875,0.022918701171875
1773251503574503400,4.98450341796875,0.138458251953125,-0.990203857421875,0.0242462158203125
1773251503584540400,4.99454052734375,0.1396484375,-0.9896087646484375,0.026092529296875
1773251503594577400,5.004577392578125,0.1398468017578125,-0.9881744384765625,0.028656005859375
1773251503604614100,5.0146142578125,0.1397552490234375,-0.986297607421875,0.028411865234375
1773251503614651100,5.024651123046875,0.138214111328125,-0.98724365234375,0.026214599609375
1773251503624687000,5.03468701171875,0.133941650390625,-0.9852447509765625,0.0220794677734375
1773251503634724400,5.044724365234375,0.1304931640625,-0.9838714599609375,0.018280029296875
1773251503644761300,5.05476123046875,0.126434326171875,-0.9815216064453125,0.0171966552734375
1773251503654798300,5.06479833984375,0.12652587890625,-0.9820098876953125,0.0198974609375
1773251503664835300,5.07483544921875,0.1272125244140625,-0.98284912109375,0.023529052734375
1773251503674872300,5.084872314453125,0.1313323974609375,-0.9833526611328125,0.026214599609375
1773251503684909300,5.094909423828125,0.1340179443359375,-0.9843902587890625,0.0251007080078125
1773251503694945300,5.1049453125,0.1365966796875,-0.9854583740234375,0.02337646484375
1773251503704982300,5.114982177734375,0.1379547119140625,-0.9870758056640625,0.0210723876953125
1773251503715019300,5.125019287109375,0.1383514404296875,-0.988800048828125,0.0230560302734375
1773251503725056500,5.135056396484375,0.1355438232421875,-0.99017333984375,0.0270233154296875
1773251503735093200,5.14509326171875,0.1320953369140625,-0.9920196533203125,0.0279693603515625
1773251503745130200,5.155130126953125,0.130767822265625,-0.9936370849609375,0.02734375
1773251503755167200,5.165167236328125,0.1285858154296875,-0.993743896484375,0.0260009765625
1773251503765203200,5.175203125,0.1284027099609375,-0.991485595703125,0.0235443115234375
1773251503775240400,5.185240478515625,0.128509521484375,-0.9925689697265625,0.02215576171875
1773251503785277400,5.19527734375,0.130950927734375,-0.99267578125,0.0202789306640625
1773251503795314400,5.205314453125,0.129241943359375,-0.9922943115234375,0.019866943359375
1773251503805351200,5.21535107421875,0.129302978515625,-0.993133544921875,0.018585205078125
1773251503815388200,5.22538818359375,0.1292724609375,-0.9925384521484375,0.0210418701171875
1773251503825425400,5.23542529296875,0.129180908203125,-0.9918670654296875,0.0230712890625
1773251503835461400,5.24546142578125,0.128326416015625,-0.99261474609375,0.0232696533203125
1773251503845498400,5.255498291015625,0.129241943359375,-0.992218017578125,0.0207672119140625
1773251503855535400,5.265535400390625,0.12982177734375,-0.992095947265625,0.02203369140625
1773251503865572000,5.275572021484375,0.130096435546875,-0.99176025390625,0.0206756591796875
1773251503875609300,5.285609375,0.1300048828125,-0.991119384765625,0.018402099609375
1773251503885646300,5.295646240234375,0.1316070556640625,-0.9918670654296875,0.0207061767578125
1773251503895683300,5.305683349609375,0.132781982421875,-0.98968505859375,0.019012451171875
1773251503905720300,5.31572021484375,0.1335906982421875,-0.9888458251953125,0.01947021484375
1773251503915756300,5.32575634765625,0.13427734375,-0.9897918701171875,0.01873779296875
1773251503925793500,5.33579345703125,0.1341094970703125,-0.9908294677734375,0.0185089111328125
1773251503935830300,5.345830322265625,0.1312103271484375,-0.9900970458984375,0.017578125
1773251503945867300,5.3558671875,0.127960205078125,-0.98779296875,0.0145263671875
1773251503955904300,5.365904296875,0.1260528564453125,-0.9888763427734375,0.014251708984375
1773251503965941200,5.375941162109375,0.1238861083984375,-0.987884521484375,0.0186614990234375
1773251503975978500,5.385978515625,0.1231689453125,-0.9869842529296875,0.0201416015625
1773251503986014500,5.396014404296875,0.123382568359375,-0.9881134033203125,0.019683837890625
1773251503996051200,5.40605126953125,0.12164306640625,-0.9876708984375,0.016326904296875
1773251504006088200,5.416088134765625,0.121185302734375,-0.9912872314453125,0.013427734375
1773251504016125200,5.426125244140625,0.1232757568359375,-0.9947357177734375,0.0160980224609375
1773251504026162400,5.436162353515625,0.1280670166015625,-0.996246337890625,0.0224609375
1773251504036199400,5.446199462890625,0.129730224609375,-0.9945831298828125,0.0260467529296875
1773251504046236200,5.456236083984375,0.1312103271484375,-0.99200439453125,0.0252685546875
1773251504056273200,5.466273193359375,0.13330078125,-0.9916839599609375,0.02252197265625
1773251504066309000,5.47630908203125,0.134124755859375,-0.9899139404296875,0.01641845703125
1773251504076346400,5.486346435546875,0.1320953369140625,-0.9906158447265625,0.0111541748046875
1773251504086383400,5.49638330078125,0.1232757568359375,-0.9895477294921875,0.008392333984375
1773251504096420400,5.50642041015625,0.114654541015625,-0.991455078125,0.0076446533203125
1773251504106457300,5.516457275390625,0.107513427734375,-0.9903564453125,0.0109100341796875
1773251504116494300,5.526494384765625,0.1063385009765625,-0.988677978515625,0.01922607421875
1773251504126531300,5.53653125,0.1092681884765625,-0.9882049560546875,0.0238800048828125
1773251504136567300,5.5465673828125,0.1138916015625,-0.9879150390625,0.023101806640625
1773251504146604300,5.556604248046875,0.1179962158203125,-0.9900054931640625,0.018341064453125
1773251504156641300,5.566641357421875,0.1241912841796875,-0.9904327392578125,0.014617919921875
1773251504166678300,5.57667822265625,0.1312255859375,-0.9896392822265625,0.014892578125
1773251504176715300,5.58671533203125,0.1339111328125,-0.9894256591796875,0.0122222900390625
1773251504186752300,5.596752197265625,0.1337738037109375,-0.987579345703125,0.01318359375
1773251504196789200,5.606789306640625,0.1312103271484375,-0.987701416015625,0.0126495361328125
1773251504206826200,5.616826171875,0.1273345947265625,-0.9868011474609375,0.0119781494140625
1773251504216862200,5.6268623046875,0.125457763671875,-0.9878387451171875,0.012481689453125
1773251504226899500,5.6368994140625,0.1216278076171875,-0.9899444580078125,0.0155792236328125
1773251504236936400,5.6469365234375,0.1210479736328125,-0.9892425537109375,0.0168609619140625
1773251504246973200,5.65697314453125,0.1191253662109375,-0.9897918701171875,0.0152435302734375
1773251504257010200,5.66701025390625,0.1167755126953125,-0.989532470703125,0.0128021240234375
1773251504267047400,5.67704736328125,0.115997314453125,-0.9875030517578125,0.0109710693359375
1773251504277084400,5.68708447265625,0.116790771484375,-0.987152099609375,0.01385498046875
1773251504287120400,5.697120361328125,0.1194610595703125,-0.9913482666015625,0.015625
1773251504297157400,5.707157470703125,0.1224822998046875,-0.9926300048828125,0.01727294921875
1773251504307194000,5.717194091796875,0.1250457763671875,-0.9904632568359375,0.0160980224609375
1773251504317231400,5.7272314453125,0.1265106201171875,-0.9942779541015625,0.0155792236328125
1773251504327268400,5.737268310546875,0.1271209716796875,-0.993072509765625,0.01324462890625
1773251504337305300,5.747305419921875,0.1289520263671875,-0.9932098388671875,0.0149993896484375
1773251504347342300,5.75734228515625,0.123046875,-0.99383544921875,0.0133514404296875
1773251504357378300,5.76737841796875,0.12164306640625,-0.99072265625,0.0104217529296875
1773251504367415300,5.777415283203125,0.1191253662109375,-0.99371337890625,0.009246826171875
1773251504377452300,5.787452392578125,0.116302490234375,-0.9931488037109375,0.0122222900390625
1773251504387489300,5.7974892578125,0.1167144775390625,-0.992431640625,0.014434814453125
1773251504397526300,5.8075263671875,0.116485595703125,-0.9921875,0.0140838623046875
1773251504407563300,5.817563232421875,0.1185455322265625,-0.99114990234375,0.0117950439453125
1773251504417600300,5.827600341796875,0.121337890625,-0.992584228515625,0.0128173828125
1773251504427637000,5.837636962890625,0.1230010986328125,-0.991455078125,0.0145721435546875
1773251504437673200,5.847673095703125,0.124176025390625,-0.989166259765625,0.0154571533203125
1773251504447710200,5.857710205078125,0.1226043701171875,-0.990692138671875,0.0137939453125
1773251504457747200,5.867747314453125,0.1209259033203125,-0.9912567138671875,0.0114288330078125
1773251504467784200,5.8777841796875,0.117523193359375,-0.9905853271484375,0.0116729736328125
1773251504477821200,5.8878212890625,0.1191253662109375,-0.9905853271484375,0.011505126953125
1773251504487858200,5.897858154296875,0.12005615234375,-0.9918975830078125,0.01141357421875
1773251504497895200,5.907895263671875,0.12042236328125,-0.992431640625,0.0125732421875
1773251504507932200,5.91793212890625,0.1232757568359375,-0.9923553466796875,0.0132598876953125
1773251504517968100,5.927968017578125,0.1226348876953125,-0.9908599853515625,0.0140838623046875
1773251504528005000,5.938005126953125,0.1225128173828125,-0.9918670654296875,0.012451171875
1773251504538042000,5.9480419921875,0.1239471435546875,-0.991851806640625,0.010986328125
1773251504548079400,5.958079345703125,0.1248626708984375,-0.9910125732421875,0.011871337890625
1773251504558116000,5.9681162109375,0.1232452392578125,-0.9903564453125,0.0149993896484375
1773251504568153000,5.978153076171875,0.1242828369140625,-0.990478515625,0.0165557861328125
1773251504578190000,5.988190185546875,0.12628173828125,-0.9905853271484375,0.0177001953125
1773251504588226000,5.99822607421875,0.12744140625,-0.9883880615234375,0.016693115234375
1773251504598263300,6.00826318359375,0.12603759765625,-0.9870147705078125,0.0130615234375
1773251504608300300,6.01830029296875,0.1255035400390625,-0.98504638671875,0.0121002197265625
1773251504618337300,6.028337158203125,0.124267578125,-0.9855194091796875,0.0112762451171875
1773251504628374000,6.0383740234375,0.1212005615234375,-0.9868316650390625,0.009674072265625
1773251504638411300,6.048411376953125,0.117218017578125,-0.9860687255859375,0.010528564453125
1773251504648448300,6.0584482421875,0.115814208984375,-0.98602294921875,0.0115966796875
1773251504658485200,6.0684853515625,0.1154022216796875,-0.9865875244140625,0.014068603515625
1773251504668521200,6.078521240234375,0.1176300048828125,-0.9861602783203125,0.0111083984375
1773251504678558200,6.08855810546875,0.1194000244140625,-0.9832763671875,0.0082550048828125
1773251504688595200,6.09859521484375,0.122802734375,-0.9842071533203125,0.006500244140625
1773251504698632200,6.108632080078125,0.125396728515625,-0.9844512939453125,0.0067596435546875
1773251504708669200,6.118669189453125,0.1252593994140625,-0.98486328125,0.0059814453125
1773251504718706200,6.1287060546875,0.12469482421875,-0.9849090576171875,0.0096893310546875
1773251504728743200,6.1387431640625,0.1248321533203125,-0.985748291015625,0.01434326171875
1773251504738780200,6.1487802734375,0.12286376953125,-0.9867706298828125,0.0162811279296875
1773251504748816100,6.158816162109375,0.1241455078125,-0.9871368408203125,0.0167999267578125
1773251504758853000,6.16885302734375,0.1250457763671875,-0.990325927734375,0.014862060546875
1773251504768890000,6.17889013671875,0.1213226318359375,-0.99310302734375,0.0107269287109375
1773251504778927000,6.188927001953125,0.1172332763671875,-0.991607666015625,0.0034637451171875
1773251504788964400,6.19896435546875,0.1109771728515625,-0.9887847900390625,-0.000579833984375
1773251504799001300,6.20900146484375,0.1065521240234375,-0.9844207763671875,0.0022125244140625
1773251504809038000,6.2190380859375,0.1029815673828125,-0.987152099609375,0.004791259765625
1773251504819074000,6.229073974609375,0.1006927490234375,-0.9874267578125,0.008575439453125
1773251504829111000,6.239111083984375,0.1065673828125,-0.98712158203125,0.008880615234375
1773251504839148300,6.249148193359375,0.1174468994140625,-0.9890899658203125,0.01080322265625
1773251504849185300,6.259185302734375,0.12603759765625,-0.991241455078125,0.008544921875
1773251504859222300,6.26922216796875,0.1328277587890625,-0.9939117431640625,0.0077972412109375
1773251504869259000,6.279259033203125,0.1353759765625,-0.9935302734375,0.009735107421875
1773251504879296000,6.2892958984375,0.1280364990234375,-0.99395751953125,0.0090484619140625
1773251504889333200,6.299333251953125,0.1230926513671875,-0.9932403564453125,0.008209228515625
1773251504899369200,6.309369140625,0.1192626953125,-0.9888763427734375,0.009002685546875
1773251504909406200,6.31940625,0.112213134765625,-0.9869842529296875,0.006256103515625
1773251504919443200,6.329443115234375,0.102935791015625,-0.98675537109375,0.0052032470703125
1773251504929480200,6.339480224609375,0.0982513427734375,-0.986846923828125,0.0069580078125
1773251504939517200,6.34951708984375,0.096282958984375,-0.9853363037109375,0.009765625
1773251504949554200,6.35955419921875,0.10418701171875,-0.9864349365234375,0.00982666015625
1773251504959591200,6.369591064453125,0.117340087890625,-0.98876953125,0.0139007568359375
1773251504969628200,6.379628173828125,0.12579345703125,-0.98919677734375,0.0148468017578125
1773251504979664100,6.3896640625,0.133392333984375,-0.98870849609375,0.013946533203125
1773251504989701400,6.399701416015625,0.1335906982421875,-0.9913330078125,0.01190185546875
1773251504999738000,6.409738037109375,0.1252593994140625,-0.9910888671875,0.0040435791015625
1773251505009775000,6.419775146484375,0.1148834228515625,-0.9927978515625,0.0003204345703125
1773251505019812000,6.42981201171875,0.104644775390625,-0.994476318359375,0.002838134765625
1773251505029849300,6.439849365234375,0.0999298095703125,-0.9938507080078125,0.0062713623046875
1773251505039886300,6.44988623046875,0.098876953125,-0.9940185546875,0.01220703125
1773251505049923000,6.459923095703125,0.101531982421875,-0.9957427978515625,0.0148773193359375
1773251505059959300,6.469959228515625,0.1075286865234375,-0.9956512451171875,0.0135955810546875
1773251505069996000,6.47999609375,0.1137237548828125,-0.9982147216796875,0.0113983154296875
1773251505080033000,6.490032958984375,0.11749267578125,-0.997955322265625,0.01007080078125
1773251505090070300,6.5000703125,0.1172027587890625,-0.9962005615234375,0.0114898681640625
1773251505100107300,6.510107177734375,0.1125946044921875,-0.994537353515625,0.013702392578125
1773251505110144300,6.520144287109375,0.106689453125,-0.9915618896484375,0.014678955078125
1773251505120181000,6.530180908203125,0.103851318359375,-0.99188232421875,0.0165557861328125
1773251505130218200,6.54021826171875,0.1055450439453125,-0.9909515380859375,0.015960693359375
1773251505140254200,6.550254150390625,0.109222412109375,-0.98876953125,0.0150146484375
1773251505150291200,6.560291259765625,0.1138916015625,-0.98974609375,0.0130462646484375
1773251505160328200,6.570328125,0.1148681640625,-0.9894256591796875,0.0133819580078125
1773251505170365200,6.580365234375,0.11297607421875,-0.9878082275390625,0.0145263671875
1773251505180402200,6.590402099609375,0.110595703125,-0.9886474609375,0.01611328125
1773251505190439200,6.600439208984375,0.1088409423828125,-0.9891357421875,0.0192108154296875
1773251505200476200,6.61047607421875,0.1065826416015625,-0.98699951171875,0.016937255859375
1773251505210512100,6.62051220703125,0.1078033447265625,-0.9877166748046875,0.015411376953125
1773251505220549000,6.630549072265625,0.110565185546875,-0.9878387451171875,0.0139923095703125
1773251505230586400,6.64058642578125,0.1101837158203125,-0.9869842529296875,0.013580322265625
1773251505240623400,6.650623291015625,0.1100311279296875,-0.9883270263671875,0.01300048828125
1773251505250660000,6.66066015625,0.1100616455078125,-0.988525390625,0.0161895751953125
1773251505260697000,6.670697021484375,0.1085662841796875,-0.99127197265625,0.0195770263671875
1773251505270734000,6.680734130859375,0.108734130859375,-0.9943695068359375,0.021392822265625
1773251505280771300,6.690771240234375,0.1072540283203125,-0.9957427978515625,0.02203369140625
1773251505290808300,6.700808349609375,0.1041717529296875,-0.9951019287109375,0.0181121826171875
1773251505300844300,6.71084423828125,0.0993804931640625,-0.994049072265625,0.0162811279296875
1773251505310881000,6.720881103515625,0.0976409912109375,-0.9931640625,0.01495361328125
1773251505320918000,6.73091796875,0.0949859619140625,-0.990264892578125,0.0148773193359375
1773251505330955300,6.740955322265625,0.0929107666015625,-0.988189697265625,0.0158233642578125
1773251505340992300,6.7509921875,0.090972900390625,-0.98663330078125,0.019439697265625
1773251505351029200,6.761029296875,0.0900421142578125,-0.9874725341796875,0.0221710205078125
1773251505361066000,6.77106591796875,0.09246826171875,-0.9896697998046875,0.023223876953125
1773251505371102200,6.781102294921875,0.0951690673828125,-0.9933624267578125,0.0260009765625
1773251505381139200,6.79113916015625,0.1001129150390625,-0.9964447021484375,0.0275726318359375
1773251505391176200,6.80117626953125,0.1029052734375,-0.998870849609375,0.0261993408203125
1773251505401213200,6.811213134765625,0.10015869140625,-1.0037841796875,0.021148681640625
1773251505411250700,6.821250732421875,0.095001220703125,-1.0035400390625,0.01531982421875
1773251505421287400,6.831287353515625,0.089813232421875,-1.0035247802734375,0.0159454345703125
1773251505431324400,6.841324462890625,0.085540771484375,-1.002655029296875,0.0176849365234375
1773251505441361700,6.851361572265625,0.0840606689453125,-1.0022735595703125,0.022796630859375
1773251505451397600,6.861397705078125,0.084014892578125,-1.000762939453125,0.026123046875
1773251505461434600,6.8714345703125,0.08837890625,-0.9981231689453125,0.0250396728515625
1773251505471471600,6.8814716796875,0.093536376953125,-0.9979705810546875,0.021240234375
1773251505481508600,6.891508544921875,0.10211181640625,-0.997955322265625,0.0163726806640625
1773251505491545300,6.90154541015625,0.1054534912109375,-1.0010528564453125,0.0167083740234375
1773251505501582600,6.91158251953125,0.1065826416015625,-1.0032806396484375,0.0208587646484375
1773251505511619600,6.92161962890625,0.10791015625,-1.005523681640625,0.023040771484375
1773251505521656600,6.931656494140625,0.1079254150390625,-1.007720947265625,0.0219879150390625
1773251505531692500,6.941692626953125,0.10870361328125,-1.0088043212890625,0.021270751953125
1773251505541729500,6.9517294921875,0.113128662109375,-1.0160980224609375,0.0229339599609375
1773251505551766500,6.9617666015625,0.1198883056640625,-1.02227783203125,0.0240325927734375
1773251505561803500,6.971803466796875,0.129119873046875,-1.0301666259765625,0.0245819091796875
1773251505571840500,6.981840576171875,0.1385650634765625,-1.041290283203125,0.02099609375
1773251505581877500,6.99187744140625,0.146575927734375,-1.0517120361328125,0.020294189453125
1773251505591914800,7.001914794921875,0.1461944580078125,-1.0505218505859375,0.0183258056640625
1773251505601951500,7.011951416015625,0.1349029541015625,-1.0381622314453125,0.013458251953125
1773251505611987700,7.02198779296875,0.1154937744140625,-1.0135955810546875,0.007080078125
1773251505622024400,7.0320244140625,0.09747314453125,-0.993743896484375,0.0055389404296875
1773251505632061400,7.0420615234375,0.087860107421875,-0.9798736572265625,0.00335693359375
1773251505642098700,7.0520986328125,0.08612060546875,-0.970947265625,0.0006561279296875
1773251505652135700,7.0621357421875,0.0904693603515625,-0.970245361328125,0.0000762939453125
1773251505662172700,7.072172607421875,0.095367431640625,-0.966644287109375,0.0045623779296875
1773251505672209400,7.08220947265625,0.0963592529296875,-0.961883544921875,0.011199951171875
1773251505682246400,7.092246337890625,0.096649169921875,-0.9565887451171875,0.020355224609375
1773251505692282400,7.102282470703125,0.089874267578125,-0.950775146484375,0.027069091796875
1773251505702319600,7.112319580078125,0.07470703125,-0.9425201416015625,0.0235137939453125
1773251505712356600,7.122356689453125,0.0596466064453125,-0.9346923828125,0.008880615234375
1773251505722393600,7.1323935546875,0.0470428466796875,-0.9330291748046875,-0.00653076171875
1773251505732430300,7.142430419921875,0.0410614013671875,-0.9331512451171875,-0.01922607421875
1773251505742467600,7.152467529296875,0.03662109375,-0.938751220703125,-0.0269927978515625
1773251505752504600,7.162504638671875,0.035888671875,-0.9477081298828125,-0.02923583984375
1773251505762541600,7.17254150390625,0.0426483154296875,-0.9597320556640625,-0.0283203125
1773251505772578600,7.18257861328125,0.05499267578125,-0.9729156494140625,-0.0261077880859375
1773251505782614500,7.192614501953125,0.0677337646484375,-0.9887237548828125,-0.024658203125
1773251505792651800,7.20265185546875,0.0821685791015625,-1.0022430419921875,-0.020294189453125
1773251505802688500,7.2126884765625,0.09625244140625,-1.0138397216796875,-0.009368896484375
1773251505812725500,7.2227255859375,0.105865478515625,-1.0252532958984375,0.0008087158203125
1773251505822762500,7.232762451171875,0.1144256591796875,-1.0320587158203125,0.0080413818359375
1773251505832799700,7.2427998046875,0.1173248291015625,-1.034637451171875,0.017059326171875
1773251505842836700,7.252836669921875,0.11444091796875,-1.03466796875,0.0241546630859375
1773251505852873500,7.26287353515625,0.104278564453125,-1.0299072265625,0.0256500244140625
1773251505862909400,7.272909423828125,0.09442138671875,-1.022979736328125,0.019256591796875
1773251505872946400,7.282946533203125,0.086944580078125,-1.017578125,0.0153350830078125
1773251505882983400,7.2929833984375,0.085479736328125,-1.018890380859375,0.013946533203125
1773251505893020700,7.303020751953125,0.090850830078125,-1.0193634033203125,0.0162200927734375
1773251505903057700,7.3130576171875,0.097808837890625,-1.02197265625,0.0162200927734375
1773251505913094400,7.323094482421875,0.1024627685546875,-1.0221405029296875,0.020477294921875
1773251505923131400,7.33313134765625,0.1006011962890625,-1.0188140869140625,0.0259246826171875
1773251505933168600,7.343168701171875,0.0901336669921875,-1.01043701171875,0.02642822265625
1773251505943204600,7.35320458984375,0.073272705078125,-1.001739501953125,0.030792236328125
1773251505953241600,7.36324169921875,0.0586090087890625,-0.9980010986328125,0.0397491455078125
1773251505963278600,7.373278564453125,0.0475616455078125,-0.9903564453125,0.0548248291015625
1773251505973315600,7.383315673828125,0.043060302734375,-0.9788818359375,0.067291259765625
1773251505983352600,7.3933525390625,0.040679931640625,-0.9776763916015625,0.0710906982421875
1773251505993389600,7.4033896484375,0.04205322265625,-0.97601318359375,0.066650390625
1773251506003426600,7.413426513671875,0.0442352294921875,-0.96746826171875,0.05633544921875
1773251506013463600,7.423463623046875,0.0449066162109375,-0.960296630859375,0.047821044921875
1773251506023499500,7.43349951171875,0.049102783203125,-0.957122802734375,0.049957275390625
1773251506033536800,7.443536865234375,0.05023193359375,-0.955078125,0.0525360107421875
1773251506043573500,7.453573486328125,0.048828125,-0.9544525146484375,0.0510101318359375
1773251506053610500,7.463610595703125,0.047607421875,-0.9571990966796875,0.041595458984375
1773251506063647500,7.4736474609375,0.04473876953125,-0.9590911865234375,0.033172607421875
1773251506073684500,7.4836845703125,0.0440521240234375,-0.963958740234375,0.0249786376953125
1773251506083721700,7.4937216796875,0.046142578125,-0.97100830078125,0.0224151611328125
1773251506093758500,7.503758544921875,0.0441741943359375,-0.975494384765625,0.0235748291015625
1773251506103794700,7.513794677734375,0.0435943603515625,-0.9848785400390625,0.0274200439453125
1773251506113831400,7.52383154296875,0.0408935546875,-0.9950103759765625,0.0354766845703125
1773251506123868400,7.533868408203125,0.0368194580078125,-1.00384521484375,0.0393218994140625
1773251506133905700,7.54390576171875,0.0345001220703125,-1.0081329345703125,0.0374755859375
1773251506143942700,7.553942626953125,0.0363616943359375,-1.0135650634765625,0.0290069580078125
1773251506153979600,7.563979736328125,0.0440521240234375,-1.01495361328125,0.014862060546875
1773251506164016400,7.574016357421875,0.0526885986328125,-1.0116119384765625,0.0045928955078125
1773251506174053600,7.5840537109375,0.060302734375,-1.00933837890625,0.0002899169921875
1773251506184089600,7.594089599609375,0.0606689453125,-1.004119873046875,-0.002593994140625
1773251506194126600,7.604126708984375,0.0566864013671875,-0.99810791015625,-0.0025787353515625
1773251506204163600,7.61416357421875,0.0480194091796875,-0.9920806884765625,-0.0027008056640625
1773251506214200600,7.62420068359375,0.0399932861328125,-0.9857940673828125,-0.0004425048828125
1773251506224237600,7.634237548828125,0.0338287353515625,-0.977996826171875,-0.003509521484375
1773251506234274600,7.644274658203125,0.029815673828125,-0.972198486328125,-0.008819580078125
1773251506244311600,7.6543115234375,0.028839111328125,-0.970916748046875,-0.0066680908203125
1773251506254348500,7.6643486328125,0.0322265625,-0.973480224609375,0.0009918212890625
1773251506264384500,7.674384521484375,0.037109375,-0.97930908203125,0.001708984375
1773251506274421500,7.68442138671875,0.04559326171875,-0.9865570068359375,0.00054931640625
1773251506284458800,7.694458740234375,0.0563507080078125,-0.9951934814453125,0.0031280517578125
1773251506294495500,7.70449560546875,0.06365966796875,-1.0026092529296875,0.0045928955078125
1773251506304532500,7.714532470703125,0.060760498046875,-1.0038299560546875,0.01239013671875
1773251506314569500,7.724569580078125,0.0538330078125,-0.9996337890625,0.018829345703125
1773251506324606700,7.734606689453125,0.0455780029296875,-0.9936676025390625,0.0188140869140625
1773251506334643700,7.744643798828125,0.037109375,-0.9828338623046875,0.0139923095703125
1773251506344680400,7.754680419921875,0.0330963134765625,-0.973876953125,0.0063934326171875
1773251506354716400,7.76471630859375,0.031341552734375,-0.9674530029296875,-0.000640869140625
1773251506364753400,7.77475341796875,0.035430908203125,-0.972412109375,-0.0067291259765625
1773251506374790700,7.784790771484375,0.0404205322265625,-0.9902496337890625,-0.0160980224609375
1773251506384827600,7.79482763671875,0.0436859130859375,-1.019134521484375,-0.0081787109375
1773251506394864600,7.80486474609375,0.0471343994140625,-1.042572021484375,0.0069732666015625
1773251506404901600,7.814901611328125,0.0546722412109375,-1.066558837890625,0.0196075439453125
1773251506414938400,7.8249384765625,0.0603485107421875,-1.0886688232421875,0.0202484130859375
1773251506424975600,7.8349755859375,0.065673828125,-1.0942230224609375,0.012969970703125
1773251506435011600,7.845011474609375,0.0675048828125,-1.0833282470703125,0.0084228515625
1773251506445048600,7.855048583984375,0.06500244140625,-1.06329345703125,0.00048828125
1773251506455085600,7.86508544921875,0.0545196533203125,-1.03826904296875,-0.0033721923828125
1773251506465122600,7.87512255859375,0.0388031005859375,-1.01611328125,0.0036468505859375
1773251506475159600,7.88515966796875,0.0205535888671875,-0.998046875,0.01629638671875
1773251506485196500,7.895196533203125,0.003326416015625,-0.9769744873046875,0.0270843505859375
1773251506495233500,7.905233642578125,-0.00274658203125,-0.960174560546875,0.0388946533203125
1773251506505270500,7.9152705078125,-0.002838134765625,-0.946441650390625,0.041656494140625
1773251506515306500,7.925306396484375,0.007293701171875,-0.935821533203125,0.036956787109375
1773251506525343700,7.93534375,0.0207977294921875,-0.92633056640625,0.0292205810546875
1773251506535380500,7.94538037109375,0.0328521728515625,-0.92120361328125,0.019744873046875
1773251506545417500,7.95541748046875,0.0430145263671875,-0.9196014404296875,0.0072784423828125
1773251506555454500,7.965454345703125,0.0460357666015625,-0.919708251953125,-0.0025787353515625
1773251506565491500,7.975491455078125,0.0403594970703125,-0.9279327392578125,-0.012786865234375
1773251506575528700,7.98552880859375,0.02447509765625,-0.93963623046875,-0.0213623046875
1773251506585565400,7.9955654296875,0.00482177734375,-0.953216552734375,-0.0230712890625
1773251506595602400,8.0056025390625,-0.0128021240234375,-0.9737091064453125,-0.017791748046875
1773251506605638400,8.015638427734375,-0.0289154052734375,-0.9898834228515625,-0.006500244140625
1773251506615675400,8.02567529296875,-0.0336151123046875,-1.009521484375,0.004058837890625
1773251506625712600,8.035712646484376,-0.02935791015625,-1.03253173828125,0.012603759765625
1773251506635749600,8.04574951171875,-0.013824462890625,-1.0518035888671875,0.0199737548828125
1773251506645786600,8.05578662109375,0.008544921875,-1.0707244873046875,0.0269317626953125
1773251506655823400,8.0658232421875,0.0325164794921875,-1.087066650390625,0.03009033203125
1773251506665860600,8.075860595703125,0.052337646484375,-1.0945587158203125,0.0359954833984375
1773251506675897600,8.085897705078125,0.0590667724609375,-1.092681884765625,0.0341033935546875
1773251506685933600,8.09593359375,0.04473876953125,-1.080413818359375,0.0244598388671875
1773251506695970600,8.105970458984375,0.021636962890625,-1.0623321533203125,0.01123046875
1773251506706007600,8.116007568359375,0.00018310546875,-1.0426025390625,0.0020599365234375
1773251506716044500,8.12604443359375,-0.0244903564453125,-1.0240478515625,-0.001708984375
1773251506726081500,8.13608154296875,-0.0413970947265625,-1.0100555419921875,-0.0010833740234375
1773251506736118500,8.146118408203124,-0.0486297607421875,-0.9942626953125,0.0052642822265625
1773251506746155500,8.156155517578124,-0.045013427734375,-0.9823150634765625,0.0109405517578125
1773251506756192500,8.166192626953125,-0.030059814453125,-0.9732208251953125,0.017669677734375
1773251506766228500,8.176228515625,-0.0072021484375,-0.9678955078125,0.02581787109375
1773251506776265700,8.186265625,0.01885986328125,-0.96282958984375,0.03076171875
1773251506786302500,8.196302490234375,0.0441131591796875,-0.96441650390625,0.0343475341796875
1773251506796339500,8.20633935546875,0.061737060546875,-0.968994140625,0.037017822265625
1773251506806376400,8.21637646484375,0.0702362060546875,-0.975372314453125,0.041961669921875
1773251506816413700,8.22641357421875,0.0694427490234375,-0.9840087890625,0.0461578369140625
1773251506826450700,8.23645068359375,0.0562896728515625,-0.9913177490234375,0.0498809814453125
1773251506836487400,8.2464873046875,0.0389404296875,-0.9963836669921875,0.046844482421875
1773251506846524400,8.2565244140625,0.0152587890625,-1.00262451171875,0.0368499755859375
1773251506856560400,8.266560302734375,-0.0036468505859375,-1.00714111328125,0.0204620361328125
1773251506866597600,8.27659765625,-0.016357421875,-1.010986328125,0.0050811767578125
1773251506876634600,8.286634521484375,-0.0227203369140625,-1.0123138427734375,-0.0067291259765625
1773251506886671600,8.296671630859375,-0.023956298828125,-1.0097198486328125,-0.0117645263671875
1773251506896708600,8.30670849609375,-0.019927978515625,-1.0089111328125,-0.013885498046875
1773251506906745600,8.31674560546875,-0.0105133056640625,-1.010498046875,-0.01422119140625
1773251506916782600,8.326782470703124,-0.0034332275390625,-1.0088653564453125,-0.01263427734375
1773251506926819600,8.336819580078124,0.0021514892578125,-1.006011962890625,-0.0144195556640625
1773251506936855600,8.34685546875,0.009735107421875,-1.0055084228515625,-0.0191192626953125
1773251506946892500,8.356892578125,0.0169219970703125,-1.00042724609375,-0.02001953125
1773251506956929500,8.366929443359375,0.02301025390625,-0.9980010986328125,-0.015533447265625
1773251506966966500,8.376966552734375,0.0318603515625,-1.000091552734375,-0.00799560546875
1773251506977003500,8.38700341796875,0.038360595703125,-1.00341796875,-0.008697509765625
1773251506987040500,8.39704052734375,0.0397796630859375,-1.006561279296875,-0.0135498046875
1773251506997077500,8.407077392578126,0.04150390625,-1.0111083984375,-0.0187835693359375
1773251507007114800,8.41711474609375,0.0415191650390625,-1.01153564453125,-0.018707275390625
1773251507017151500,8.4271513671875,0.0401763916015625,-1.01617431640625,-0.0208740234375
1773251507027187700,8.437187744140624,0.03692626953125,-1.0133514404296875,-0.0237884521484375
1773251507037224400,8.447224365234375,0.0326995849609375,-1.0053253173828125,-0.0232696533203125
1773251507047261400,8.457261474609375,0.031951904296875,-0.9945068359375,-0.0259246826171875
1773251507057298700,8.467298583984375,0.03131103515625,-0.980438232421875,-0.0312042236328125
1773251507067335700,8.477335693359375,0.03228759765625,-0.9649505615234375,-0.0399017333984375
1773251507077372700,8.48737255859375,0.0307464599609375,-0.95501708984375,-0.0484619140625
1773251507087409400,8.497409423828126,0.0327606201171875,-0.944732666015625,-0.056365966796875
1773251507097446400,8.5074462890625,0.034027099609375,-0.939300537109375,-0.0627899169921875
1773251507107482600,8.517482666015624,0.035858154296875,-0.93994140625,-0.0601654052734375
1773251507117519600,8.52751953125,0.03875732421875,-0.94647216796875,-0.0580291748046875
1773251507127556600,8.537556640625,0.0435028076171875,-0.9555816650390625,-0.055816650390625
1773251507137593600,8.547593505859375,0.05035400390625,-0.9677886962890625,-0.0492706298828125
1773251507147630300,8.55763037109375,0.0612030029296875,-0.9805145263671875,-0.0456695556640625
1773251507157667600,8.56766748046875,0.068084716796875,-0.988739013671875,-0.0420379638671875
1773251507167704600,8.57770458984375,0.0772705078125,-0.999603271484375,-0.041595458984375
1773251507177741600,8.587741455078126,0.080169677734375,-1.007568359375,-0.0392608642578125
1773251507187778600,8.597778564453124,0.0795745849609375,-1.0166473388671875,-0.038604736328125
1773251507197814500,8.607814453125,0.0716705322265625,-1.0240325927734375,-0.0412139892578125
1773251507207851800,8.617851806640624,0.0590057373046875,-1.0298919677734375,-0.0474395751953125
1773251507217888500,8.627888427734375,0.042694091796875,-1.031951904296875,-0.0575408935546875
1773251507227925500,8.637925537109375,0.026153564453125,-1.028564453125,-0.066619873046875
1773251507237962500,8.64796240234375,0.01007080078125,-1.0214691162109375,-0.06756591796875
1773251507247999700,8.657999755859375,-0.0004425048828125,-1.006561279296875,-0.071014404296875
1773251507258036700,8.66803662109375,-0.003265380859375,-0.9988250732421875,-0.0687408447265625
1773251507268073500,8.678073486328126,0.0018157958984375,-0.9892120361328125,-0.054718017578125
1773251507278110500,8.6881103515625,0.0151824951171875,-0.9811859130859375,-0.0443115234375
1773251507288146400,8.698146484375,0.0323486328125,-0.9763641357421875,-0.0433807373046875
1773251507298183400,8.708183349609374,0.0428924560546875,-0.97296142578125,-0.0419921875
1773251507308220700,8.718220703125,0.05120849609375,-0.972564697265625,-0.043731689453125
1773251507318257700,8.728257568359375,0.05450439453125,-0.9756011962890625,-0.043487548828125
1773251507328294400,8.73829443359375,0.0513916015625,-0.9761962890625,-0.036163330078125
1773251507338331400,8.748331298828125,0.0423583984375,-0.980316162109375,-0.036224365234375
1773251507348368600,8.75836865234375,0.0343475341796875,-0.9840240478515625,-0.0433349609375
1773251507358405600,8.768405517578126,0.025177001953125,-0.985321044921875,-0.0525054931640625
1773251507368441600,8.778441650390626,0.016571044921875,-0.988800048828125,-0.05926513671875
1773251507378478600,8.788478515625,0.012054443359375,-0.9918670654296875,-0.053314208984375
1773251507388515600,8.798515625,0.0141143798828125,-0.9951324462890625,-0.0428924560546875
1773251507398552600,8.808552490234375,0.0230255126953125,-0.997528076171875,-0.034027099609375
1773251507408589000,8.818589111328125,0.0332794189453125,-0.99932861328125,-0.0319671630859375
1773251507418626300,8.828626220703125,0.042999267578125,-1.00042724609375,-0.034881591796875
1773251507428663300,8.838663330078125,0.0469970703125,-1.0033721923828125,-0.0394744873046875
1773251507438700300,8.8487001953125,0.0462188720703125,-1.00531005859375,-0.038970947265625
1773251507448737000,8.858737060546876,0.039825439453125,-1.006591796875,-0.04052734375
1773251507458773200,8.868773193359376,0.0335235595703125,-1.009124755859375,-0.0377655029296875
1773251507468810200,8.878810302734376,0.0291748046875,-1.0082550048828125,-0.0338897705078125
1773251507478847200,8.88884716796875,0.0262298583984375,-1.0079345703125,-0.02618408203125
1773251507488884200,8.89888427734375,0.0261077880859375,-1.0032806396484375,-0.0221099853515625
1773251507498921200,8.908921142578125,0.0300750732421875,-0.996490478515625,-0.017578125
1773251507508958500,8.91895849609375,0.03369140625,-0.9916534423828125,-0.0141754150390625
1773251507518995200,8.9289951171875,0.0381317138671875,-0.98583984375,-0.00933837890625
1773251507529032200,8.9390322265625,0.039794921875,-0.9812469482421875,-0.0106353759765625
1773251507539068200,8.949068115234375,0.0383148193359375,-0.9754791259765625,-0.0123291015625
1773251507549105200,8.959105224609376,0.0343017578125,-0.9724578857421875,-0.0134735107421875
1773251507559142100,8.96914208984375,0.031463623046875,-0.9722137451171875,-0.0153961181640625
1773251507569179400,8.979179443359374,0.02777099609375,-0.9733123779296875,-0.0088348388671875
1773251507579216100,8.989216064453124,0.0296478271484375,-0.978118896484375,0.0017242431640625
1773251507589253000,8.999253173828125,0.0352325439453125,-0.9842376708984375,0.0093536376953125
1773251507599290000,9.0092900390625,0.0431671142578125,-0.99517822265625,0.0102081298828125
1773251507609327400,9.019327392578125,0.05316162109375,-1.0065155029296875,0.00494384765625
1773251507619364400,9.0293642578125,0.0575408935546875,-1.0137939453125,-0.0012969970703125
1773251507629400300,9.039400390625,0.0564117431640625,-1.0210418701171875,-0.006195068359375
1773251507639437300,9.049437255859376,0.0510711669921875,-1.0224456787109375,-0.0111083984375
1773251507649474000,9.05947412109375,0.0462188720703125,-1.022735595703125,-0.010955810546875
1773251507659511300,9.06951123046875,0.0452880859375,-1.019500732421875,-0.011016845703125
1773251507669548300,9.07954833984375,0.04730224609375,-1.017303466796875,-0.0154266357421875
1773251507679585300,9.089585205078125,0.05218505859375,-1.011932373046875,-0.022369384765625
1773251507689622300,9.099622314453125,0.0555419921875,-1.0112457275390625,-0.0290069580078125
1773251507699659000,9.109658935546875,0.05535888671875,-1.0124359130859375,-0.0319671630859375
1773251507709696300,9.1196962890625,0.05255126953125,-1.0123138427734375,-0.0288543701171875
1773251507719732200,9.129732177734375,0.048431396484375,-1.012420654296875,-0.023651123046875
1773251507729769200,9.139769287109376,0.0489654541015625,-1.0091705322265625,-0.017547607421875
1773251507739806200,9.14980615234375,0.0504302978515625,-1.004638671875,-0.0108795166015625
1773251507749843200,9.15984326171875,0.05419921875,-0.999420166015625,-0.009063720703125
1773251507759880200,9.169880126953124,0.05755615234375,-0.9951171875,-0.0079803466796875
1773251507769917200,9.179917236328125,0.063140869140625,-0.9916229248046875,-0.0069580078125
1773251507779954200,9.1899541015625,0.063201904296875,-0.9903717041015625,-0.00518798828125
1773251507789991200,9.1999912109375,0.0604400634765625,-0.9871978759765625,-0.0053253173828125
1773251507800028400,9.2100283203125,0.0577239990234375,-0.98681640625,-0.005462646484375
1773251507810064400,9.220064453125,0.0540008544921875,-0.98590087890625,-0.0068359375
1773251507820101400,9.230101318359376,0.05169677734375,-0.985687255859375,-0.01287841796875
1773251507830138000,9.24013818359375,0.049774169921875,-0.98504638671875,-0.0136260986328125
1773251507840175000,9.250175048828124,0.052093505859375,-0.9875946044921875,-0.017181396484375
1773251507850212400,9.26021240234375,0.058929443359375,-0.987762451171875,-0.012603759765625
1773251507860249300,9.270249267578125,0.06781005859375,-0.9887237548828125,-0.0053558349609375
1773251507870286300,9.280286376953125,0.0766448974609375,-0.9899444580078125,0.0003662109375
1773251507880323000,9.290322998046875,0.0789794921875,-0.9912261962890625,0.0029296875
1773251507890359000,9.300359130859375,0.0808258056640625,-0.992034912109375,-0.003082275390625
1773251507900396000,9.31039599609375,0.0737457275390625,-0.9923553466796875,-0.009765625
1773251507910433300,9.320433349609376,0.0653533935546875,-0.9941253662109375,-0.0130157470703125
1773251507920470300,9.33047021484375,0.0597991943359375,-0.9950103759765625,-0.0095977783203125
1773251507930507300,9.34050732421875,0.0597686767578125,-0.9957122802734375,-0.005950927734375
1773251507940544300,9.350544189453124,0.062835693359375,-0.99945068359375,-0.0048065185546875
1773251507950581200,9.360581298828125,0.069580078125,-0.99774169921875,-0.009307861328125
1773251507960618200,9.3706181640625,0.07818603515625,-0.9986114501953125,-0.0113525390625
1773251507970655200,9.3806552734375,0.085418701171875,-0.9999542236328125,-0.0169219970703125
1773251507980691200,9.390691162109375,0.08984375,-0.9985809326171875,-0.0210723876953125
1773251507990728200,9.400728271484375,0.089752197265625,-0.993438720703125,-0.020843505859375
1773251508000765400,9.410765380859376,0.0886688232421875,-0.992584228515625,-0.0163116455078125
1773251508010802200,9.42080224609375,0.0846405029296875,-0.987579345703125,-0.01202392578125
1773251508020839200,9.430839111328124,0.0750274658203125,-0.98675537109375,-0.0123748779296875
1773251508030876200,9.440876220703124,0.06768798828125,-0.9864501953125,-0.0187225341796875
1773251508040913200,9.4509130859375,0.0660858154296875,-0.987457275390625,-0.017791748046875
1773251508050950400,9.460950439453125,0.069000244140625,-0.9898529052734375,-0.0140533447265625
1773251508060987100,9.470987060546875,0.0769195556640625,-0.9878997802734375,-0.0067138671875
1773251508071023000,9.481023193359375,0.087677001953125,-0.9884796142578125,-0.0031585693359375
1773251508081060000,9.49106005859375,0.0963134765625,-0.9888763427734375,-0.0046539306640625
1773251508091097000,9.50109716796875,0.098114013671875,-0.9862823486328125,-0.0112152099609375
1773251508101134300,9.51113427734375,0.0936126708984375,-0.9871673583984375,-0.0185089111328125
1773251508111171300,9.52117138671875,0.0894775390625,-0.989227294921875,-0.021697998046875
1773251508121208000,9.5312080078125,0.0818328857421875,-0.9881744384765625,-0.02618408203125
1773251508131245000,9.5412451171875,0.07196044921875,-0.989837646484375,-0.03057861328125
1773251508141282300,9.5512822265625,0.0636749267578125,-0.992034912109375,-0.028961181640625
1773251508151319300,9.5613193359375,0.060028076171875,-0.99285888671875,-0.01995849609375
1773251508161355300,9.571355224609375,0.0631103515625,-0.994354248046875,-0.0136566162109375
1773251508171392300,9.581392333984375,0.0720977783203125,-0.9957122802734375,-0.0141754150390625
1773251508181429200,9.59142919921875,0.0795135498046875,-0.997283935546875,-0.0209197998046875
1773251508191466200,9.60146630859375,0.0856170654296875,-0.99908447265625,-0.0263214111328125
1773251508201503200,9.611503173828124,0.0902252197265625,-1.000732421875,-0.0275421142578125
1773251508211540200,9.621540283203124,0.0913848876953125,-1.0009765625,-0.0252227783203125
1773251508221577200,9.6315771484375,0.0906982421875,-1.0021514892578125,-0.022369384765625
1773251508231614200,9.6416142578125,0.085968017578125,-1.0003814697265625,-0.0232391357421875
1773251508241650200,9.651650146484375,0.0791473388671875,-0.998016357421875,-0.0265960693359375
1773251508251687200,9.661687255859375,0.069000244140625,-0.99658203125,-0.029510498046875
1773251508261724200,9.67172412109375,0.063873291015625,-0.99542236328125,-0.0318603515625
1773251508271761200,9.68176123046875,0.0613555908203125,-0.9932861328125,-0.031158447265625
1773251508281798100,9.691798095703126,0.060455322265625,-0.9950714111328125,-0.0279998779296875
1773251508291835400,9.70183544921875,0.066680908203125,-0.995758056640625,-0.0210723876953125
1773251508301872000,9.7118720703125,0.073974609375,-0.995361328125,-0.0184326171875
1773251508311909000,9.7219091796875,0.0791778564453125,-0.9974212646484375,-0.0185699462890625
1773251508321946000,9.731946044921875,0.0827484130859375,-0.99615478515625,-0.01556396484375
1773251508331982000,9.741982177734375,0.083160400390625,-0.9961090087890625,-0.0171356201171875
1773251508342019300,9.752019287109375,0.07855224609375,-0.9941864013671875,-0.0183868408203125
1773251508352056300,9.762056396484375,0.0754241943359375,-0.99261474609375,-0.0220794677734375
1773251508362093300,9.77209326171875,0.0737762451171875,-0.993438720703125,-0.024658203125
1773251508372130000,9.782130126953126,0.0738983154296875,-0.9932403564453125,-0.023712158203125
1773251508382167300,9.792167236328124,0.0756683349609375,-0.992279052734375,-0.0211334228515625
1773251508392204300,9.802204345703124,0.076171875,-0.990325927734375,-0.019927978515625
1773251508402241300,9.8122412109375,0.0751190185546875,-0.9885101318359375,-0.0191650390625
1773251508412278800,9.82227880859375,0.0735321044921875,-0.986419677734375,-0.0201416015625
1773251508422315000,9.83231494140625,0.074066162109375,-0.9834442138671875,-0.0161590576171875
1773251508432351700,9.842351806640625,0.070220947265625,-0.9828643798828125,-0.0136871337890625
1773251508442388700,9.852388671875,0.067535400390625,-0.980926513671875,-0.014129638671875
1773251508452425700,9.86242578125,0.06683349609375,-0.9829559326171875,-0.0160675048828125
1773251508462463000,9.872462890625,0.0687713623046875,-0.98687744140625,-0.01190185546875
1773251508472500000,9.8825,0.06585693359375,-0.9908905029296875,-0.0092010498046875
1773251508482536700,9.89253662109375,0.066802978515625,-0.9959564208984375,-0.007232666015625
1773251508492573700,9.90257373046875,0.0667572021484375,-0.998260498046875,-0.0061492919921875
1773251508502611000,9.91261083984375,0.0661773681640625,-1.0005950927734375,-0.00872802734375
1773251508512647000,9.92264697265625,0.06365966796875,-0.9998321533203125,-0.0125885009765625
1773251508522684000,9.932683837890625,0.06036376953125,-0.9983367919921875,-0.01812744140625
1773251508532721000,9.942720947265625,0.058349609375,-0.9983673095703125,-0.021148681640625
1773251508542757600,9.952757568359376,0.0583953857421875,-0.998382568359375,-0.0203094482421875
1773251508552794600,9.962794677734376,0.056854248046875,-0.9965362548828125,-0.0167694091796875
1773251508562832000,9.972831787109374,0.05615234375,-0.995819091796875,-0.014556884765625
1773251508572868900,9.982868896484375,0.0603485107421875,-0.9951629638671875,-0.0113525390625
1773251508582905900,9.99290576171875,0.0673980712890625,-0.99908447265625,-0.008697509765625
1773251508592942600,10.002942626953125,0.0747833251953125,-1.0010986328125,-0.0072174072265625
1773251508602978800,10.012978759765625,0.079193115234375,-1.0067901611328125,-0.0047454833984375
1773251508613015800,10.023015869140625,0.08306884765625,-1.0122528076171875,-0.00421142578125
1773251508623052800,10.033052734375,0.0848846435546875,-1.0198211669921875,-0.00848388671875
1773251508633089800,10.04308984375,0.082366943359375,-1.022918701171875,-0.01220703125
1773251508643126800,10.053126708984376,0.0776519775390625,-1.0279693603515625,-0.0161285400390625
1773251508653164000,10.0631640625,0.07012939453125,-1.02581787109375,-0.0206756591796875
1773251508663200800,10.07320068359375,0.0577545166015625,-1.018829345703125,-0.024139404296875
1773251508673237800,10.08323779296875,0.0440216064453125,-1.0102691650390625,-0.0258026123046875
1773251508683274800,10.093274658203125,0.036407470703125,-1.0001373291015625,-0.0261383056640625
1773251508693310700,10.103310791015625,0.0341033935546875,-0.9908447265625,-0.0280609130859375
1773251508703348000,10.113347900390625,0.0362548828125,-0.9831390380859375,-0.027923583984375
1773251508713385000,10.123385009765625,0.040283203125,-0.9769287109375,-0.0245819091796875
1773251508723421700,10.133421630859376,0.0460662841796875,-0.9731597900390625,-0.0213775634765625
1773251508733458700,10.143458740234376,0.054534912109375,-0.9730224609375,-0.013885498046875
1773251508743495700,10.15349560546875,0.060272216796875,-0.971893310546875,-0.008148193359375
1773251508753533000,10.163532958984375,0.0619964599609375,-0.9748687744140625,-0.003387451171875
1773251508763570000,10.17356982421875,0.059356689453125,-0.9780731201171875,-0.0001983642578125
1773251508773606700,10.183606689453125,0.054840087890625,-0.980712890625,0.003631591796875
1773251508783643000,10.193642822265625,0.04815673828125,-0.9862823486328125,0.0072174072265625
1773251508793679600,10.2036796875,0.0386810302734375,-0.988433837890625,0.0092620849609375
1773251508803716900,10.213716796875,0.0306243896484375,-0.9901275634765625,0.0067138671875
1773251508813753900,10.22375390625,0.0258026123046875,-0.9928436279296875,0.0045166015625
1773251508823790800,10.233790771484376,0.0242462158203125,-0.9959564208984375,0.0018310546875
1773251508833827800,10.243827880859374,0.0252532958984375,-0.9954376220703125,0.00115966796875
1773251508843864800,10.25386474609375,0.02740478515625,-0.9951019287109375,0.0059356689453125
1773251508853901800,10.26390185546875,0.03118896484375,-0.99456787109375,0.00482177734375
1773251508863938800,10.273938720703125,0.031005859375,-0.9937744140625,-0.000091552734375
1773251508873974800,10.283974853515625,0.0268402099609375,-0.9912872314453125,-0.00244140625
1773251508884011800,10.29401171875,0.0227813720703125,-0.9915008544921875,-0.0037994384765625
1773251508894048800,10.304048828125,0.0165252685546875,-0.9934539794921875,-0.006256103515625
1773251508904085800,10.314085693359376,0.01434326171875,-0.995361328125,-0.001983642578125
1773251508914122800,10.324122802734376,0.017913818359375,-0.99603271484375,0.00543212890625
1773251508924159700,10.33415966796875,0.0258331298828125,-0.999786376953125,0.011871337890625
1773251508934196700,10.34419677734375,0.037567138671875,-1.00128173828125,0.0122528076171875
1773251508944234000,10.35423388671875,0.042083740234375,-1.002532958984375,0.0072021484375
1773251508954270700,10.364270751953125,0.035125732421875,-1.00738525390625,-0.001739501953125
1773251508964307000,10.374306884765625,0.027069091796875,-1.0080108642578125,-0.0090484619140625
1773251508974343700,10.38434375,0.02093505859375,-1.0078582763671875,-0.0131988525390625
1773251508984380700,10.394380615234375,0.0169830322265625,-1.002288818359375,-0.014678955078125
1773251508994418000,10.40441796875,0.017120361328125,-1.00579833984375,-0.011932373046875
1773251509004455000,10.414454833984376,0.0177154541015625,-1.0034942626953125,-0.004608154296875
1773251509014492000,10.424491943359374,0.0186920166015625,-1.0018463134765625,0.0008544921875
1773251509024528600,10.434528564453124,0.024505615234375,-1.0002593994140625,0.000152587890625
1773251509034565600,10.444565673828125,0.03369140625,-1.0010833740234375,-0.002960205078125
1773251509044603000,10.454602783203125,0.040557861328125,-0.99981689453125,-0.0059051513671875
1773251509054638800,10.464638916015625,0.0447235107421875,-0.9988250732421875,-0.009918212890625
1773251509064675800,10.47467578125,0.0456085205078125,-0.996063232421875,-0.0133514404296875
1773251509074712800,10.484712890625,0.0428466796875,-0.9973602294921875,-0.0159149169921875
1773251509084749800,10.494749755859376,0.03973388671875,-1.0008087158203125,-0.020660400390625
1773251509094786800,10.504786865234376,0.0362091064453125,-0.997833251953125,-0.02142333984375
1773251509104823800,10.51482373046875,0.032318115234375,-0.9976654052734375,-0.0175628662109375
1773251509114860800,10.52486083984375,0.0317535400390625,-0.9982452392578125,-0.014862060546875
1773251509124897800,10.534897705078125,0.0323028564453125,-1.0013580322265625,-0.0165252685546875
1773251509134934800,10.544934814453125,0.03204345703125,-1.001312255859375,-0.02178955078125
1773251509144971000,10.554970947265625,0.03363037109375,-1.003265380859375,-0.0262603759765625
1773251509155007700,10.5650078125,0.037078857421875,-1.005828857421875,-0.025390625
1773251509165044700,10.575044677734375,0.038787841796875,-1.0030364990234375,-0.0210113525390625
1773251509175081700,10.585081787109376,0.040008544921875,-0.9988555908203125,-0.0156097412109375
1773251509185119000,10.595118896484376,0.041259765625,-0.996185302734375,-0.0112152099609375
1773251509195156000,10.605156005859374,0.0400848388671875,-0.9936676025390625,-0.0119781494140625
1773251509205192700,10.615192626953124,0.0422821044921875,-0.992218017578125,-0.0158538818359375
1773251509215229700,10.625229736328125,0.040283203125,-0.9914093017578125,-0.0204010009765625
1773251509225266700,10.6352666015625,0.041107177734375,-0.9895782470703125,-0.023681640625
1773251509235302700,10.645302734375,0.044219970703125,-0.9911346435546875,-0.0251007080078125
1773251509245340000,10.65533984375,0.0484161376953125,-0.990936279296875,-0.01727294921875
1773251509255377000,10.665376953125,0.0546875,-0.9917449951171875,-0.01165771484375
1773251509265414000,10.675413818359376,0.058013916015625,-0.9923858642578125,-0.008819580078125
1773251509275450600,10.68545068359375,0.05609130859375,-0.9941253662109375,-0.00811767578125
1773251509285487900,10.69548779296875,0.047088623046875,-0.9949798583984375,-0.013702392578125
1773251509295524900,10.70552490234375,0.0367279052734375,-0.9969482421875,-0.020843505859375
1773251509305561900,10.715561767578125,0.0256500244140625,-0.998779296875,-0.0285186767578125
1773251509315598800,10.725598876953125,0.0201263427734375,-0.9977264404296875,-0.0320281982421875
1773251509325634800,10.735634765625,0.0174102783203125,-0.998016357421875,-0.031219482421875
1773251509335671800,10.745671875,0.0161590576171875,-0.998046875,-0.0265350341796875
1773251509345708800,10.755708740234375,0.017333984375,-0.996734619140625,-0.02081298828125
1773251509355745800,10.765745849609376,0.021728515625,-0.995147705078125,-0.0187530517578125
1773251509365782800,10.77578271484375,0.0270233154296875,-0.9954986572265625,-0.017425537109375
1773251509375820000,10.785820068359374,0.0291595458984375,-0.9941558837890625,-0.0219879150390625
1773251509385856800,10.795856689453124,0.0313262939453125,-0.995758056640625,-0.0247955322265625
1773251509395893800,10.805893798828125,0.033294677734375,-0.994873046875,-0.02093505859375
1773251509405930800,10.8159306640625,0.0324554443359375,-0.9957427978515625,-0.0184783935546875
1773251509415966500,10.825966552734375,0.033355712890625,-0.9979248046875,-0.01300048828125
1773251509426003500,10.83600341796875,0.0319976806640625,-0.99981689453125,-0.0140838623046875
1773251509436040400,10.84604052734375,0.03131103515625,-1.00311279296875,-0.0164337158203125
1773251509446077700,10.85607763671875,0.029571533203125,-1.00384521484375,-0.0203094482421875
1773251509456114400,10.866114501953126,0.0281524658203125,-1.0049896240234375,-0.0205535888671875
1773251509466151400,10.8761513671875,0.0301513671875,-1.0036773681640625,-0.02154541015625
1773251509476188400,10.8861884765625,0.027618408203125,-1.0049285888671875,-0.0250701904296875
1773251509486225400,10.896225341796875,0.0260467529296875,-1.0051422119140625,-0.0276641845703125
1773251509496262700,10.9062626953125,0.02496337890625,-1.00146484375,-0.0269317626953125
1773251509506298600,10.916298583984375,0.025299072265625,-0.9990386962890625,-0.02313232421875
1773251509516335400,10.92633544921875,0.027069091796875,-0.9973907470703125,-0.0216217041015625
1773251509526372400,10.936372314453125,0.03070068359375,-0.993133544921875,-0.0223846435546875
1773251509536409300,10.946409423828126,0.0351104736328125,-0.9906463623046875,-0.0195465087890625
1773251509546446600,10.956446533203126,0.0377349853515625,-0.9899749755859375,-0.0211334228515625
1773251509556483600,10.966483642578124,0.0413665771484375,-0.9928741455078125,-0.0213165283203125
1773251509566520600,10.9765205078125,0.0416717529296875,-0.9927520751953125,-0.020751953125
1773251509576557300,10.986557373046875,0.0413970947265625,-0.995452880859375,-0.01971435546875
1773251509586594600,10.996594482421875,0.0400390625,-0.9975433349609375,-0.0174407958984375
1773251509596630500,11.006630615234375,0.03863525390625,-0.998138427734375,-0.0161590576171875
1773251509606667500,11.01666748046875,0.035919189453125,-0.9979705810546875,-0.014923095703125
1773251509616704500,11.02670458984375,0.0353851318359375,-0.9998016357421875,-0.01190185546875
1773251509626741500,11.036741455078126,0.0361175537109375,-0.99737548828125,-0.01171875
1773251509636778200,11.0467783203125,0.034820556640625,-0.9969940185546875,-0.0128936767578125
1773251509646815500,11.0568154296875,0.0296783447265625,-0.9984893798828125,-0.0184326171875
1773251509656852500,11.0668525390625,0.0234527587890625,-1.000244140625,-0.0245208740234375
1773251509666889500,11.076889404296875,0.0184783935546875,-0.9976959228515625,-0.025299072265625
1773251509676926500,11.086926513671875,0.01483154296875,-0.9989471435546875,-0.0239715576171875
1773251509686962400,11.09696240234375,0.014678955078125,-1.000396728515625,-0.01995849609375
1773251509696999400,11.10699951171875,0.0165252685546875,-1.000518798828125,-0.0159454345703125
1773251509707036400,11.117036376953125,0.0160369873046875,-0.9979705810546875,-0.0125885009765625
1773251509717073400,11.127073486328126,0.017578125,-0.9955291748046875,-0.0120697021484375
1773251509727110400,11.1371103515625,0.0166015625,-0.9958038330078125,-0.0121917724609375
1773251509737147600,11.147147705078124,0.015106201171875,-0.99609375,-0.01904296875
1773251509747184600,11.1571845703125,0.013946533203125,-0.9964752197265625,-0.0203094482421875
1773251509757221400,11.167221435546875,0.0182952880859375,-0.99853515625,-0.01336669921875
1773251509767258400,11.17725830078125,0.0274200439453125,-0.99652099609375,-0.0047760009765625
1773251509777295600,11.187295654296875,0.03631591796875,-0.9993438720703125,0.0031585693359375
1773251509787331600,11.19733154296875,0.04351806640625,-0.9999847412109375,0.0018310546875
1773251509797368600,11.20736865234375,0.045166015625,-0.995147705078125,-0.0068511962890625
1773251509807405600,11.217405517578126,0.04107666015625,-0.9925384521484375,-0.0153656005859375
1773251509817442300,11.2274423828125,0.033935546875,-0.9904937744140625,-0.023712158203125
1773251509827479300,11.237479248046874,0.0272979736328125,-0.985260009765625,-0.0221405029296875
1773251509837516500,11.2475166015625,0.02490234375,-0.9801177978515625,-0.01995849609375
1773251509847553500,11.257553466796875,0.0216827392578125,-0.982208251953125,-0.017913818359375
1773251509857590500,11.267590576171875,0.02020263671875,-0.98614501953125,-0.012451171875
1773251509867627300,11.277627197265625,0.0233306884765625,-0.9872894287109375,-0.0121002197265625
1773251509877663500,11.28766357421875,0.025360107421875,-0.9914398193359375,-0.012542724609375
1773251509887700500,11.297700439453125,0.024078369140625,-0.9953460693359375,-0.0160980224609375
1773251509897737500,11.307737548828126,0.0216827392578125,-0.998138427734375,-0.0172271728515625
1773251509907774500,11.3177744140625,0.0197906494140625,-0.998809814453125,-0.0201568603515625
1773251509917811500,11.3278115234375,0.0185699462890625,-0.998931884765625,-0.015899658203125
1773251509927848700,11.3378486328125,0.0201416015625,-0.9960784912109375,-0.0155792236328125
1773251509937885400,11.347885498046875,0.0255279541015625,-0.9979095458984375,-0.0122528076171875
1773251509947922400,11.35792236328125,0.02581787109375,-0.9965057373046875,-0.0053253173828125
1773251509957959400,11.36795947265625,0.0275726318359375,-0.995635986328125,-0.0001983642578125
1773251509967995400,11.377995361328125,0.0275421142578125,-0.996734619140625,0.001373291015625
1773251509978032600,11.38803271484375,0.02484130859375,-0.9975433349609375,-0.002349853515625
1773251509988069600,11.398069580078126,0.020263671875,-0.997802734375,-0.007293701171875
1773251509998106400,11.4081064453125,0.01593017578125,-0.9966583251953125,-0.00775146484375
1773251510008143400,11.418143310546874,0.0138092041015625,-0.9970855712890625,-0.0077362060546875
1773251510018180400,11.428180419921874,0.007659912109375,-0.9946746826171875,-0.009490966796875
1773251510028217600,11.438217529296875,0.0051422119140625,-0.9903564453125,-0.0051422119140625
1773251510038254600,11.448254638671875,-0.0008697509765625,-0.9906463623046875,0.0002593994140625
1773251510048291300,11.458291259765625,-0.00262451171875,-0.992523193359375,0.004241943359375
1773251510058327600,11.46832763671875,-0.0006866455078125,-0.9933013916015625,0.00787353515625
1773251510068364300,11.4783642578125,0.005035400390625,-0.996368408203125,0.01019287109375
1773251510078401500,11.488401611328126,0.012054443359375,-0.9954376220703125,0.0138092041015625
1773251510088438500,11.4984384765625,0.021728515625,-0.9944915771484375,0.012054443359375
1773251510098475500,11.5084755859375,0.0323333740234375,-0.995086669921875,0.0034637451171875
1773251510108512500,11.518512451171874,0.0341644287109375,-0.996551513671875,-0.0061492919921875
1773251510118549500,11.528549560546875,0.029815673828125,-0.99365234375,-0.0096435546875
1773251510128586500,11.53858642578125,0.0181427001953125,-0.9921417236328125,-0.008697509765625
1773251510138623500,11.54862353515625,0.005950927734375,-0.9948272705078125,-0.0095977783203125
1773251510148659500,11.558659423828125,-0.0056610107421875,-0.992767333984375,-0.0089569091796875
1773251510158696400,11.568696533203125,-0.0154266357421875,-0.9906005859375,-0.0062713623046875
1773251510168733400,11.5787333984375,-0.0164337158203125,-0.988494873046875,-0.0035247802734375
1773251510178770400,11.5887705078125,-0.0138397216796875,-0.9903717041015625,0.002532958984375
1773251510188807400,11.598807373046874,-0.009063720703125,-0.9912872314453125,0.0059356689453125
1773251510198844400,11.608844482421874,-0.0054168701171875,-0.9947052001953125,0.0066375732421875
1773251510208881400,11.61888134765625,-0.0032806396484375,-0.9993133544921875,0.002166748046875
1773251510218918700,11.628918701171875,-0.0049896240234375,-1.0037689208984375,-0.0063934326171875
1773251510228955400,11.638955322265625,-0.00775146484375,-1.0074462890625,-0.0125732421875
1773251510238992400,11.648992431640625,-0.0110015869140625,-1.009368896484375,-0.0193939208984375
1773251510249028400,11.6590283203125,-0.01373291015625,-1.0109405517578125,-0.020050048828125
1773251510259065300,11.6690654296875,-0.02093505859375,-1.008209228515625,-0.014739990234375
1773251510269102600,11.6791025390625,-0.024444580078125,-1.00286865234375,-0.01519775390625
1773251510279139600,11.6891396484375,-0.02337646484375,-1.0002593994140625,-0.013092041015625
1773251510289176600,11.699176513671874,-0.02288818359375,-0.9980316162109375,-0.0120086669921875
1773251510299213300,11.70921337890625,-0.023895263671875,-0.9990386962890625,-0.014129638671875
1773251510309250300,11.719250244140625,-0.01947021484375,-0.998687744140625,-0.012725830078125
1773251510319287600,11.72928759765625,-0.0159454345703125,-1.00048828125,-0.0092010498046875
1773251510329324500,11.739324462890625,-0.015777587890625,-1.0003814697265625,-0.0085601806640625
1773251510339360500,11.749360595703125,-0.0130462646484375,-1.0005035400390625,-0.0118255615234375
1773251510349397500,11.7593974609375,-0.0101776123046875,-1.0003662109375,-0.0197906494140625
1773251510359434200,11.769434326171876,-0.0081939697265625,-1.00018310546875,-0.02252197265625
1773251510369471500,11.779471435546874,-0.0064697265625,-1.000823974609375,-0.02398681640625
1773251510379508500,11.789508544921874,-0.0038299560546875,-1.00067138671875,-0.0206756591796875
1773251510389545500,11.79954541015625,-0.000640869140625,-0.99786376953125,-0.0115509033203125
1773251510399582500,11.80958251953125,-0.0018768310546875,-0.9971160888671875,-0.0050811767578125
1773251510409619500,11.819619384765625,-0.0028228759765625,-0.9957427978515625,-0.0067138671875
1773251510419656200,11.82965625,-0.0060882568359375,-0.997283935546875,-0.0121612548828125
1773251510429692200,11.839692138671875,-0.0082855224609375,-0.9945831298828125,-0.0136566162109375
1773251510439729200,11.849729248046875,-0.011322021484375,-0.99359130859375,-0.01318359375
1773251510449766400,11.859766357421876,-0.0120391845703125,-0.994140625,-0.0114898681640625
1773251510459803400,11.869803466796874,-0.0131072998046875,-0.9936981201171875,-0.012786865234375
1773251510469840400,11.87984033203125,-0.0145721435546875,-0.9920196533203125,-0.01141357421875
1773251510479877000,11.889877197265625,-0.014556884765625,-0.9934539794921875,-0.0121917724609375
1773251510489914400,11.899914306640625,-0.014984130859375,-0.994384765625,-0.0152130126953125
1773251510499951400,11.909951416015625,-0.01324462890625,-0.9963226318359375,-0.01806640625
1773251510509988400,11.91998828125,-0.01165771484375,-0.9959716796875,-0.01513671875
1773251510520025300,11.930025390625,-0.0133209228515625,-0.9973907470703125,-0.011383056640625
1773251510530061300,11.940061279296875,-0.015838623046875,-0.9972381591796875,-0.0078582763671875
1773251510540098300,11.950098388671876,-0.021697998046875,-0.9981536865234375,-0.00726318359375
1773251510550135300,11.96013525390625,-0.0257415771484375,-1.00177001953125,-0.00518798828125
1773251510560172300,11.97017236328125,-0.02581787109375,-1.00079345703125,-0.004119873046875
1773251510570209300,11.980209228515625,-0.0266265869140625,-0.9984893798828125,-0.0074615478515625
1773251510580246300,11.990246337890625,-0.0244293212890625,-1.0009613037109375,-0.008575439453125
1773251510590283500,12.000283447265625,-0.0245819091796875,-1.000579833984375,-0.0082855224609375
1773251510600320300,12.0103203125,-0.027252197265625,-0.9991607666015625,-0.01153564453125
1773251510610357200,12.020357177734375,-0.0292816162109375,-0.999298095703125,-0.0142822265625
1773251510620393200,12.030393310546875,-0.0312347412109375,-0.99884033203125,-0.01422119140625
1773251510630430200,12.04043017578125,-0.02850341796875,-0.996795654296875,-0.0112762451171875
1773251510640467500,12.050467529296874,-0.026031494140625,-0.9940643310546875,-0.014251708984375
1773251510650504400,12.06050439453125,-0.028228759765625,-0.9951324462890625,-0.01373291015625
1773251510660541200,12.070541259765625,-0.0295257568359375,-0.9967498779296875,-0.01177978515625
1773251510670578200,12.080578125,-0.0318450927734375,-0.999298095703125,-0.0102081298828125
1773251510680615200,12.090615234375,-0.033172607421875,-1.0010986328125,-0.0089874267578125
1773251510690652400,12.10065234375,-0.0312957763671875,-1.0030517578125,-0.0081787109375
1773251510700689400,12.110689453125,-0.032470703125,-1.00213623046875,-0.00872802734375
1773251510710725400,12.120725341796875,-0.0301666259765625,-1.00286865234375,-0.0095977783203125
1773251510720762400,12.130762451171876,-0.02728271484375,-1.00360107421875,-0.0122528076171875
1773251510730799000,12.140799072265626,-0.0252532958984375,-1.0021820068359375,-0.01849365234375
1773251510740836400,12.15083642578125,-0.0247802734375,-0.99981689453125,-0.026397705078125
1773251510750873300,12.160873291015625,-0.02197265625,-0.9987335205078125,-0.0230560302734375
1773251510760910300,12.170910400390625,-0.019134521484375,-0.998779296875,-0.0193328857421875
1773251510770947300,12.180947265625,-0.01806640625,-0.9980010986328125,-0.0196990966796875
1773251510780984300,12.190984375,-0.0194549560546875,-0.9984893798828125,-0.0215301513671875
1773251510791021300,12.201021240234375,-0.0196380615234375,-0.9983673095703125,-0.021392822265625
1773251510801058300,12.211058349609376,-0.0216217041015625,-0.9993438720703125,-0.015625
1773251510811094300,12.22109423828125,-0.02392578125,-1.00042724609375,-0.013031005859375
1773251510821131300,12.23113134765625,-0.027069091796875,-1.0028228759765625,-0.011871337890625
1773251510831168500,12.24116845703125,-0.028839111328125,-1.0006866455078125,-0.012939453125
1773251510841205200,12.251205322265625,-0.0299072265625,-0.9976348876953125,-0.012939453125
1773251510851242200,12.2612421875,-0.027740478515625,-0.9965972900390625,-0.0126190185546875
1773251510861279200,12.271279296875,-0.0259552001953125,-0.99810791015625,-0.012451171875
1773251510871316200,12.281316162109375,-0.0216064453125,-0.99920654296875,-0.0080413818359375
1773251510881353500,12.291353515625,-0.01873779296875,-0.998931884765625,-0.0055389404296875
1773251510891390200,12.30139013671875,-0.0169219970703125,-0.9978790283203125,-0.00408935546875
1773251510901426400,12.311426513671876,-0.017791748046875,-1.0003662109375,-0.0081634521484375
1773251510911463200,12.321463134765626,-0.021820068359375,-1.0004119873046875,-0.0064697265625
1773251510921500200,12.331500244140624,-0.02313232421875,-1.0031280517578125,-0.0056304931640625
1773251510931537400,12.341537353515625,-0.023468017578125,-1.004119873046875,-0.0039825439453125
1773251510941574400,12.351574462890625,-0.0234375,-1.0040283203125,-0.0039520263671875
1773251510951611400,12.361611328125,-0.027740478515625,-1.002593994140625,-0.0011444091796875
1773251510961648000,12.371648193359375,-0.0299530029296875,-1.0012969970703125,0.0018463134765625
1773251510971685400,12.381685302734375,-0.03021240234375,-1.003936767578125,0.0007781982421875
1773251510981722400,12.391722412109376,-0.0284881591796875,-1.0027313232421875,0.0006866455078125
1773251510991758300,12.40175830078125,-0.0287322998046875,-1.0028228759765625,-0.0004425048828125
1773251511001795300,12.41179541015625,-0.0268707275390625,-1.0036468505859375,-0.0019073486328125
1773251511011832300,12.421832275390624,-0.0233154296875,-1.001068115234375,-0.0023040771484375
1773251511021869300,12.431869384765625,-0.01763916015625,-1.0006256103515625,-0.0009307861328125
1773251511031906300,12.44190625,-0.013916015625,-0.9979248046875,-0.0009002685546875
1773251511041943300,12.451943359375,-0.0115203857421875,-0.9945831298828125,0.00018310546875
1773251511051980300,12.461980224609375,-0.011383056640625,-0.9931488037109375,0.0010528564453125
1773251511062017300,12.472017333984375,-0.0131378173828125,-0.99090576171875,-0.0032501220703125
1773251511072054300,12.48205419921875,-0.01397705078125,-0.99090576171875,-0.0020751953125
1773251511082090500,12.492090576171876,-0.01397705078125,-0.990936279296875,-0.002838134765625
1773251511092127200,12.502127197265626,-0.011566162109375,-0.991912841796875,0.0024261474609375
1773251511102164200,12.512164306640624,-0.008819580078125,-0.9947357177734375,0.001708984375
1773251511112201200,12.522201171875,-0.0053253173828125,-0.9949798583984375,0.0023345947265625
1773251511122238500,12.532238525390625,-0.0070648193359375,-0.99591064453125,0.004730224609375
1773251511132275500,12.542275390625,-0.008453369140625,-0.9943389892578125,0.0043182373046875
1773251511142312200,12.552312255859375,-0.0090484619140625,-0.9934234619140625,0.007537841796875
1773251511152349200,12.56234912109375,-0.0076904296875,-0.9950714111328125,0.007171630859375
1773251511162386400,12.572386474609376,-0.0084381103515625,-0.9955902099609375,0.0055694580078125
1773251511172423400,12.58242333984375,-0.00946044921875,-0.9974212646484375,0.0065460205078125
1773251511182459400,12.59245947265625,-0.008941650390625,-0.9982452392578125,0.0052337646484375
1773251511192496400,12.602496337890624,-0.0102386474609375,-0.9970245361328125,0.004669189453125
1773251511202533000,12.612533203125,-0.011016845703125,-0.998016357421875,0.0052947998046875
1773251511212570000,12.622570068359375,-0.01092529296875,-0.9993896484375,0.007171630859375
1773251511222607400,12.632607421875,-0.00836181640625,-0.9985198974609375,0.0094146728515625
1773251511232644400,12.642644287109375,-0.00732421875,-0.99951171875,0.0083465576171875
1773251511242681300,12.652681396484375,-0.0045318603515625,-1.00140380859375,0.0100250244140625
1773251511252718300,12.66271826171875,-0.00469970703125,-1.0015411376953125,0.01446533203125
1773251511262755300,12.67275537109375,-0.0065460205078125,-1.00115966796875,0.0181732177734375
1773251511272791300,12.682791259765626,-0.0072174072265625,-1.0023651123046875,0.020599365234375
1773251511282828300,12.692828369140624,-0.0102691650390625,-1.0015869140625,0.0189208984375
1773251511292865300,12.702865234375,-0.010406494140625,-0.9999542236328125,0.0136260986328125
1773251511302902300,12.71290234375,-0.0096435546875,-0.9976806640625,0.009429931640625
1773251511312939500,12.722939453125,-0.011199951171875,-0.9952392578125,0.00714111328125
1773251511322976300,12.732976318359375,-0.010498046875,-0.9934539794921875,0.0099334716796875
1773251511333013200,12.74301318359375,-0.0072174072265625,-0.9913482666015625,0.0152587890625
1773251511343050200,12.75305029296875,-0.005401611328125,-0.9925994873046875,0.015045166015625
1773251511353087200,12.763087158203126,-0.003662109375,-0.994903564453125,0.011688232421875
1773251511363124500,12.77312451171875,0.0006256103515625,-0.9951934814453125,0.007781982421875
1773251511373160400,12.783160400390624,0.0047760009765625,-0.9968109130859375,0.007049560546875
1773251511383197200,12.793197265625,0.0098114013671875,-1.0011749267578125,0.008392333984375
1773251511393234200,12.803234130859375,0.0141143798828125,-0.99981689453125,0.0096435546875
1773251511403271200,12.813271240234375,0.0093994140625,-0.9975128173828125,0.007049560546875
1773251511413308700,12.82330859375,0.0043182373046875,-0.997955322265625,0.0017242431640625
1773251511423345700,12.833345703125,0.0028839111328125,-0.99945068359375,-0.0026092529296875
1773251511433382400,12.84338232421875,0.0013275146484375,-1.0011444091796875,-0.0062255859375
1773251511443419400,12.85341943359375,-0.0002899169921875,-0.998382568359375,-0.007843017578125
1773251511453456600,12.86345654296875,-0.0018768310546875,-0.9994964599609375,-0.00701904296875
1773251511463492600,12.87349267578125,-0.0004425048828125,-0.9975433349609375,-0.0065460205078125
1773251511473529600,12.883529541015625,0.003814697265625,-0.9940643310546875,-0.00347900390625
1773251511483566600,12.893566650390625,0.009307861328125,-0.9936370849609375,-0.0043182373046875
1773251511493603600,12.903603515625,0.014312744140625,-0.9929962158203125,-0.00592041015625
1773251511503640600,12.913640625,0.016998291015625,-0.9903717041015625,-0.00946044921875
1773251511513677600,12.923677490234375,0.017486572265625,-0.989715576171875,-0.01116943359375
1773251511523714600,12.933714599609376,0.015045166015625,-0.990478515625,-0.0097198486328125
1773251511533751600,12.94375146484375,0.01470947265625,-0.9918212890625,-0.0103759765625
1773251511543788500,12.95378857421875,0.0123138427734375,-0.9930572509765625,-0.0118408203125
1773251511553824800,12.96382470703125,0.01025390625,-0.9949951171875,-0.0169525146484375
1773251511563861500,12.973861572265625,0.0087432861328125,-0.996734619140625,-0.0216064453125
1773251511573898500,12.9838984375,0.0082855224609375,-0.99884033203125,-0.0215606689453125
1773251511583935500,12.993935546875,0.0106964111328125,-0.9982147216796875,-0.017364501953125
1773251511593972500,13.003972412109375,0.0113983154296875,-1.0004425048828125,-0.0093994140625
1773251511604009700,13.014009765625,0.01068115234375,-1.001190185546875,-0.0016937255859375
1773251511614046500,13.02404638671875,0.0090789794921875,-1.0022125244140625,-0.0009613037109375
