time,seconds_elapsed,z,y,x
1773251275684921900,0.065921875,-0.7424468994140625,-0.7117919921875,0.1117095947265625
1773251275694957800,0.075957763671875,-0.7055511474609375,-0.6555328369140625,0.1197662353515625
1773251275704993800,0.085993896484375,-0.6727294921875,-0.6252593994140625,0.080841064453125
1773251275715030000,0.096030029296875,-0.6760101318359375,-0.6246337890625,0.024658203125
1773251275725066000,0.10606591796875,-0.6525726318359375,-0.652099609375,-0.01220703125
1773251275735102000,0.11610205078125,-0.636077880859375,-0.696685791015625,-0.002410888671875
1773251275745139000,0.126138916015625,-0.674102783203125,-0.7284393310546875,0.00970458984375
1773251275755175000,0.1361748046875,-0.6871337890625,-0.7461395263671875,0.0362091064453125
1773251275765211000,0.1462109375,-0.676849365234375,-0.7709808349609375,0.0701141357421875
1773251275775246800,0.156246826171875,-0.707794189453125,-0.7766876220703125,0.0753326416015625
1773251275785282800,0.16628271484375,-0.712310791015625,-0.7642669677734375,0.0670166015625
1773251275795318800,0.17631884765625,-0.6918182373046875,-0.7605743408203125,0.0592041015625
1773251275805354800,0.186354736328125,-0.71173095703125,-0.72930908203125,0.0487518310546875
1773251275815390700,0.196390625,-0.7084197998046875,-0.6737213134765625,0.001007080078125
1773251275825427000,0.206427001953125,-0.625762939453125,-0.654510498046875,0.00335693359375
1773251275835463000,0.216462890625,-0.59063720703125,-0.725555419921875,0.076995849609375
1773251275845499000,0.226498779296875,-0.6789703369140625,-0.775909423828125,0.0870819091796875
1773251275855534800,0.236534912109375,-0.6251068115234375,-0.79833984375,0.0860748291015625
1773251275865571800,0.24657177734375,-0.549224853515625,-0.827880859375,0.0824127197265625
1773251275875607800,0.25660791015625,-0.5550689697265625,-0.8366851806640625,0.080291748046875
1773251275885644000,0.26664404296875,-0.5667266845703125,-0.8369293212890625,0.0662384033203125
1773251275895680000,0.276679931640625,-0.5724334716796875,-0.7983856201171875,0.0302886962890625
1773251275905716000,0.286716064453125,-0.5582275390625,-0.731201171875,-0.033050537109375
1773251275915752000,0.296751953125,-0.534393310546875,-0.663726806640625,-0.0896453857421875
1773251275925788000,0.306787841796875,-0.534393310546875,-0.6350555419921875,-0.091033935546875
1773251275935824000,0.316823974609375,-0.5475921630859375,-0.6387481689453125,-0.0694580078125
1773251275945859800,0.32685986328125,-0.523712158203125,-0.651885986328125,-0.040283203125
1773251275955895800,0.336895751953125,-0.4484405517578125,-0.7170257568359375,0.0543365478515625
1773251275965931800,0.346931884765625,-0.455841064453125,-0.8603057861328125,0.1663055419921875
1773251275975968000,0.356968017578125,-0.5200042724609375,-0.94927978515625,0.16436767578125
1773251275986004000,0.36700390625,-0.472930908203125,-0.9408721923828125,0.10064697265625
1773251275996040000,0.3770400390625,-0.367584228515625,-0.9267120361328125,0.0386962890625
1773251276006077000,0.387076904296875,-0.3723907470703125,-0.9180908203125,-0.03887939453125
1773251276016113000,0.39711279296875,-0.3991851806640625,-0.8848419189453125,-0.0598907470703125
1773251276026148900,0.40714892578125,-0.3832244873046875,-0.8661651611328125,-0.01251220703125
1773251276036184800,0.417184814453125,-0.3841705322265625,-0.861602783203125,-0.008575439453125
1773251276046220800,0.427220703125,-0.3901214599609375,-0.84613037109375,-0.04547119140625
1773251276056256800,0.4372568359375,-0.349517822265625,-0.855560302734375,-0.0376434326171875
1773251276066292700,0.447292724609375,-0.3304595947265625,-0.9168853759765625,0.0055084228515625
1773251276076328700,0.45732861328125,-0.3546295166015625,-0.998748779296875,0.0339202880859375
1773251276086364700,0.46736474609375,-0.37322998046875,-1.0467681884765625,0.028533935546875
1773251276096400600,0.477400634765625,-0.3182830810546875,-1.0936431884765625,0.029510498046875
1773251276106436600,0.4874365234375,-0.316619873046875,-1.13079833984375,0.036376953125
1773251276116472800,0.497472900390625,-0.3720550537109375,-1.11407470703125,0.0732879638671875
1773251276126509000,0.507509033203125,-0.35772705078125,-1.038726806640625,0.0720977783203125
1773251276136545800,0.5175458984375,-0.2985382080078125,-0.95208740234375,0.0171661376953125
1773251276146582000,0.52758203125,-0.26953125,-0.91180419921875,0.0008087158203125
1773251276156618000,0.537617919921875,-0.2642059326171875,-0.8603973388671875,0.0057830810546875
1773251276166654000,0.547654052734375,-0.25848388671875,-0.8528594970703125,0.0279998779296875
1773251276176690000,0.55768994140625,-0.25042724609375,-0.9048004150390625,0.0609283447265625
1773251276186725000,0.56772509765625,-0.2618408203125,-0.9340362548828125,0.04742431640625
1773251276196761000,0.577760986328125,-0.228240966796875,-0.931182861328125,-0.0145263671875
1773251276206797000,0.587797119140625,-0.183837890625,-0.9287261962890625,0.0187530517578125
1773251276216833000,0.5978330078125,-0.1727142333984375,-0.9310455322265625,0.06585693359375
1773251276226869000,0.607868896484375,-0.16033935546875,-0.941986083984375,0.01739501953125
1773251276236905200,0.6179052734375,-0.136993408203125,-0.9295654296875,-0.0246124267578125
1773251276246942000,0.62794189453125,-0.1329498291015625,-0.92822265625,-0.0448760986328125
1773251276256978000,0.63797802734375,-0.1331024169921875,-0.949920654296875,-0.097991943359375
1773251276267014100,0.64801416015625,-0.1214752197265625,-0.962982177734375,-0.1182708740234375
1773251276277050000,0.658050048828125,-0.11212158203125,-1.0012359619140625,-0.14801025390625
1773251276287086000,0.668086181640625,-0.1139068603515625,-1.008758544921875,-0.1855621337890625
1773251276297122000,0.6781220703125,-0.0557403564453125,-0.9614410400390625,-0.1902923583984375
1773251276307158000,0.688157958984375,-0.0113983154296875,-0.9576416015625,-0.1643829345703125
1773251276317194000,0.698194091796875,0.011444091796875,-1.0021514892578125,-0.1285858154296875
1773251276327230000,0.70822998046875,0.007568359375,-1.136077880859375,-0.073333740234375
1773251276337266200,0.71826611328125,-0.03271484375,-1.2006683349609375,-0.1157684326171875
1773251276347302100,0.72830224609375,-0.0536041259765625,-1.176513671875,-0.0742340087890625
1773251276357338000,0.738338134765625,-0.0099945068359375,-1.1075439453125,-0.063262939453125
1773251276367374000,0.7483740234375,0.0448150634765625,-1.0321807861328125,-0.044525146484375
1773251276377411000,0.7584111328125,0.0407562255859375,-0.9935150146484375,-0.0186309814453125
1773251276387447000,0.768447021484375,0.050079345703125,-1.0054168701171875,-0.015899658203125
1773251276397483000,0.77848291015625,0.104949951171875,-1.086273193359375,0.0640411376953125
1773251276407519000,0.78851904296875,0.1030731201171875,-1.152740478515625,0.1280059814453125
1773251276417555200,0.79855517578125,0.10986328125,-1.169219970703125,0.1315460205078125
1773251276427591200,0.808591064453125,0.135986328125,-1.1846160888671875,0.155242919921875
1773251276437627100,0.818627197265625,0.1387176513671875,-1.1613311767578125,0.0941162109375
1773251276447663000,0.8286630859375,0.165191650390625,-1.0678253173828125,-0.0145416259765625
1773251276457699000,0.838698974609375,0.1665191650390625,-0.99114990234375,-0.0808258056640625
1773251276467735000,0.848735107421875,0.13299560546875,-0.9619598388671875,-0.15557861328125
1773251276477771000,0.85877099609375,0.1036376953125,-0.9752960205078125,-0.2401885986328125
1773251276487807000,0.868806884765625,0.0417633056640625,-0.995697021484375,-0.249237060546875
1773251276497844000,0.878843994140625,0.01348876953125,-1.010986328125,-0.1887664794921875
1773251276507880000,0.8888798828125,-0.014312744140625,-0.9977874755859375,-0.1035308837890625
1773251276517916200,0.898916259765625,-0.0572967529296875,-0.9637451171875,-0.0185089111328125
1773251276527952100,0.9089521484375,-0.0614013671875,-0.9499053955078125,0.004302978515625
1773251276537988000,0.918988037109375,-0.04461669921875,-0.9642181396484375,-0.0030517578125
1773251276548024000,0.929024169921875,-0.0478973388671875,-0.9949188232421875,-0.0166015625
1773251276558060300,0.939060302734375,-0.0562744140625,-1.017120361328125,-0.035888671875
1773251276568096300,0.94909619140625,-0.0582275390625,-0.988189697265625,-0.047637939453125
1773251276578132200,0.95913232421875,-0.057373046875,-0.9434967041015625,-0.01519775390625
1773251276588168200,0.969168212890625,-0.0575103759765625,-0.9537506103515625,-0.0373687744140625
1773251276598204200,0.9792041015625,-0.03814697265625,-0.9802093505859375,-0.1024017333984375
1773251276608240000,0.989240234375,-0.0251922607421875,-0.981719970703125,-0.100311279296875
1773251276618276000,0.999276123046875,-0.02880859375,-0.9755706787109375,-0.090911865234375
1773251276628313000,1.00931298828125,-0.030609130859375,-0.982391357421875,-0.1159515380859375
1773251276638349000,1.01934912109375,-0.0319976806640625,-0.9921417236328125,-0.1206817626953125
1773251276648385000,1.029385009765625,-0.031341552734375,-1.013427734375,-0.1539154052734375
1773251276658421000,1.0394208984375,-0.0369110107421875,-1.029296875,-0.1435394287109375
1773251276668457000,1.04945703125,-0.0497589111328125,-1.0411529541015625,-0.1127471923828125
1773251276678493000,1.059492919921875,-0.0655975341796875,-1.03118896484375,-0.1011810302734375
1773251276688529000,1.06952880859375,-0.04144287109375,-1.003173828125,-0.0905609130859375
1773251276698565000,1.079565185546875,-0.022186279296875,-0.9939117431640625,-0.0809173583984375
1773251276708601000,1.08960107421875,-0.039642333984375,-0.983367919921875,-0.0662994384765625
1773251276718637000,1.099636962890625,-0.05340576171875,-0.95416259765625,-0.0679168701171875
1773251276728673000,1.109673095703125,-0.0439300537109375,-0.9229278564453125,-0.042205810546875
1773251276738709000,1.119708984375,-0.024139404296875,-0.927032470703125,-0.03680419921875
1773251276748746200,1.129746337890625,-0.03009033203125,-0.9593048095703125,-0.0594024658203125
1773251276758782200,1.1397822265625,-0.0489959716796875,-1.03118896484375,-0.1684112548828125
1773251276768818200,1.149818115234375,-0.0874176025390625,-1.0446319580078125,-0.139251708984375
1773251276778854100,1.159854248046875,-0.0911865234375,-1.035888671875,-0.10540771484375
1773251276788890000,1.16989013671875,-0.0811767578125,-1.0259857177734375,-0.151123046875
1773251276798926000,1.179926025390625,-0.026458740234375,-1.0189971923828125,-0.256622314453125
1773251276808962000,1.189962158203125,0.0000152587890625,-1.0128021240234375,-0.227386474609375
1773251276818998000,1.199998046875,-0.0697479248046875,-0.9859619140625,-0.1141815185546875
1773251276829034000,1.210033935546875,-0.1098480224609375,-0.948394775390625,-0.06085205078125
1773251276839070200,1.2200703125,-0.0930023193359375,-0.927581787109375,-0.0367431640625
1773251276849106200,1.230106201171875,-0.06781005859375,-0.952911376953125,-0.1083221435546875
1773251276859142100,1.24014208984375,-0.0783538818359375,-0.99664306640625,-0.1959686279296875
1773251276869179100,1.25017919921875,-0.116607666015625,-1.007720947265625,-0.17852783203125
1773251276879215000,1.260215087890625,-0.1299896240234375,-1.014556884765625,-0.185791015625
1773251276889251000,1.2702509765625,-0.101806640625,-1.0130615234375,-0.187652587890625
1773251276899287000,1.280287109375,-0.05889892578125,-1.024932861328125,-0.171630859375
1773251276909323000,1.290322998046875,-0.027069091796875,-1.025482177734375,-0.1596221923828125
1773251276919359200,1.300359130859375,-0.0069427490234375,-0.9998626708984375,-0.1329498291015625
1773251276929395200,1.310395263671875,-0.00836181640625,-0.9783172607421875,-0.1031494140625
1773251276939431200,1.32043115234375,-0.0176239013671875,-0.962738037109375,-0.0956268310546875
1773251276949467100,1.330467041015625,-0.01422119140625,-0.9477386474609375,-0.0986785888671875
1773251276959503000,1.340503173828125,-0.0153656005859375,-0.9461822509765625,-0.0930938720703125
1773251276969539000,1.3505390625,-0.0285186767578125,-0.946685791015625,-0.1033477783203125
1773251276979575000,1.360574951171875,-0.02825927734375,-0.953521728515625,-0.149993896484375
1773251276989611300,1.370611328125,-0.0035552978515625,-0.978363037109375,-0.2165069580078125
1773251276999648000,1.38064794921875,0.033721923828125,-1.0044708251953125,-0.28643798828125
1773251277009684000,1.39068408203125,0.0549774169921875,-1.0045013427734375,-0.287994384765625
1773251277019720200,1.40072021484375,0.0447845458984375,-0.9961395263671875,-0.2157135009765625
1773251277029756200,1.410756103515625,0.0201568603515625,-0.990875244140625,-0.1880950927734375
1773251277039792000,1.420792236328125,0.006683349609375,-0.9824981689453125,-0.198150634765625
1773251277049828000,1.430828125,0.006072998046875,-0.96728515625,-0.167724609375
1773251277059864000,1.440864013671875,-0.0066070556640625,-0.957061767578125,-0.1202392578125
1773251277069900000,1.450900146484375,-0.0709228515625,-0.9515380859375,-0.0503387451171875
1773251277079936000,1.46093603515625,-0.0612640380859375,-0.9393310546875,-0.070465087890625
1773251277089972000,1.470971923828125,-0.04547119140625,-0.9337310791015625,-0.083282470703125
1773251277100008000,1.481008056640625,-0.0895843505859375,-0.9558258056640625,-0.1126708984375
1773251277110044000,1.4910439453125,-0.1095733642578125,-0.969757080078125,-0.1448211669921875
1773251277120080000,1.501079833984375,-0.1276397705078125,-0.9769134521484375,-0.1698455810546875
1773251277130117000,1.5111171875,-0.126678466796875,-0.990386962890625,-0.1806793212890625
1773251277140153000,1.521153076171875,-0.1593475341796875,-0.991729736328125,-0.173248291015625
1773251277150189000,1.53118896484375,-0.1967926025390625,-0.9913330078125,-0.17041015625
1773251277160225300,1.541225341796875,-0.217987060546875,-0.9889068603515625,-0.164886474609375
1773251277170261200,1.55126123046875,-0.2193450927734375,-0.9849853515625,-0.1576690673828125
1773251277180297500,1.56129736328125,-0.2091827392578125,-0.9866485595703125,-0.1571044921875
1773251277190333400,1.57133349609375,-0.1942138671875,-0.9865264892578125,-0.1513214111328125
1773251277200369400,1.581369384765625,-0.1875762939453125,-0.9930877685546875,-0.131011962890625
1773251277210405400,1.5914052734375,-0.183258056640625,-0.9963836669921875,-0.13177490234375
1773251277220441300,1.60144140625,-0.1735992431640625,-0.9993438720703125,-0.1594696044921875
1773251277230477300,1.611477294921875,-0.17059326171875,-0.997100830078125,-0.168914794921875
1773251277240513300,1.62151318359375,-0.1796417236328125,-0.9842376708984375,-0.158599853515625
1773251277250550300,1.63155029296875,-0.1576080322265625,-0.98504638671875,-0.1644287109375
1773251277260586200,1.641586181640625,-0.130889892578125,-0.983245849609375,-0.1555938720703125
1773251277270622200,1.651622314453125,-0.1352386474609375,-0.9748687744140625,-0.1351776123046875
1773251277280658200,1.661658203125,-0.158721923828125,-0.9680023193359375,-0.1363067626953125
1773251277290694100,1.671694091796875,-0.176788330078125,-0.9683990478515625,-0.146148681640625
1773251277300730000,1.681730224609375,-0.198089599609375,-0.9669189453125,-0.1453857421875
1773251277310766300,1.691766357421875,-0.22125244140625,-0.960784912109375,-0.130401611328125
1773251277320802600,1.701802490234375,-0.2364044189453125,-0.96044921875,-0.122589111328125
1773251277330838500,1.711838623046875,-0.2425689697265625,-0.9627227783203125,-0.1269073486328125
1773251277340874500,1.72187451171875,-0.2349395751953125,-0.9671783447265625,-0.1375579833984375
1773251277350910500,1.731910400390625,-0.2173614501953125,-0.970489501953125,-0.147705078125
1773251277360946400,1.741946533203125,-0.194976806640625,-0.97344970703125,-0.1460723876953125
1773251277370983400,1.7519833984375,-0.17864990234375,-0.9732818603515625,-0.137115478515625
1773251277381019400,1.762019287109375,-0.167083740234375,-0.976043701171875,-0.1291656494140625
1773251277391055400,1.772055419921875,-0.1625518798828125,-0.9771881103515625,-0.1279449462890625
1773251277401091300,1.78209130859375,-0.1578369140625,-0.977386474609375,-0.12945556640625
1773251277411127300,1.792127197265625,-0.156463623046875,-0.9788818359375,-0.1355438232421875
1773251277421163300,1.802163330078125,-0.1594696044921875,-0.9792938232421875,-0.136444091796875
1773251277431199200,1.81219921875,-0.166015625,-0.9788665771484375,-0.1367645263671875
1773251277441235200,1.822235107421875,-0.173309326171875,-0.976409912109375,-0.1339874267578125
1773251277451271200,1.832271240234375,-0.175567626953125,-0.9754486083984375,-0.13360595703125
1773251277461307400,1.842307373046875,-0.1734619140625,-0.9799652099609375,-0.1325836181640625
1773251277471343400,1.85234326171875,-0.1745758056640625,-0.9812164306640625,-0.1319732666015625
1773251277481379300,1.86237939453125,-0.17889404296875,-0.9822235107421875,-0.1331024169921875
1773251277491415300,1.872415283203125,-0.17919921875,-0.979827880859375,-0.1332855224609375
1773251277501452500,1.88245263671875,-0.1767578125,-0.9777374267578125,-0.1319732666015625
1773251277511488500,1.892488525390625,-0.1721343994140625,-0.9758453369140625,-0.1333770751953125
1773251277521524500,1.9025244140625,-0.1613311767578125,-0.97625732421875,-0.13446044921875
1773251277531560400,1.912560546875,-0.147857666015625,-0.9784393310546875,-0.1282806396484375
1773251277541596400,1.922596435546875,-0.1424102783203125,-0.982574462890625,-0.1246490478515625
1773251277551632400,1.93263232421875,-0.1391754150390625,-0.98590087890625,-0.127166748046875
1773251277561668400,1.94266845703125,-0.1441650390625,-0.985137939453125,-0.1293792724609375
1773251277571704300,1.952704345703125,-0.152801513671875,-0.97955322265625,-0.128631591796875
1773251277581740300,1.962740234375,-0.156280517578125,-0.97601318359375,-0.1298065185546875
1773251277591776300,1.9727763671875,-0.1552581787109375,-0.9716339111328125,-0.12811279296875
1773251277601812500,1.9828125,-0.155609130859375,-0.9678955078125,-0.123809814453125
1773251277611848400,1.992848388671875,-0.160003662109375,-0.96942138671875,-0.1209869384765625
1773251277621884400,2.002884521484375,-0.1638946533203125,-0.9705352783203125,-0.1201019287109375
1773251277631921400,2.01292138671875,-0.162872314453125,-0.971405029296875,-0.121124267578125
1773251277641957400,2.022957275390625,-0.1519317626953125,-0.9724884033203125,-0.1283416748046875
1773251277651993300,2.032993408203125,-0.1398773193359375,-0.97314453125,-0.1298828125
1773251277662029300,2.043029296875,-0.133758544921875,-0.9742584228515625,-0.1282501220703125
1773251277672065300,2.053065185546875,-0.135009765625,-0.97607421875,-0.1243438720703125
1773251277682101200,2.063101318359375,-0.136688232421875,-0.97674560546875,-0.1252593994140625
1773251277692137200,2.07313720703125,-0.1396484375,-0.9768524169921875,-0.1293487548828125
1773251277702173200,2.083173095703125,-0.1410064697265625,-0.9781341552734375,-0.1314544677734375
1773251277712209200,2.093209228515625,-0.141265869140625,-0.977325439453125,-0.133331298828125
1773251277722245400,2.103245361328125,-0.140106201171875,-0.9782562255859375,-0.1284332275390625
1773251277732281300,2.11328125,-0.1395111083984375,-0.97900390625,-0.1227264404296875
1773251277742317300,2.1233173828125,-0.137786865234375,-0.9792327880859375,-0.12322998046875
1773251277752354300,2.133354248046875,-0.1342926025390625,-0.977691650390625,-0.12750244140625
1773251277762390300,2.143390380859375,-0.12982177734375,-0.98004150390625,-0.1283416748046875
1773251277772426200,2.15342626953125,-0.13104248046875,-0.9792327880859375,-0.125762939453125
1773251277782462500,2.16346240234375,-0.1295318603515625,-0.9774017333984375,-0.1181793212890625
1773251277792498400,2.17349853515625,-0.1280364990234375,-0.978118896484375,-0.1154022216796875
1773251277802534400,2.183534423828125,-0.12994384765625,-0.9797515869140625,-0.11767578125
1773251277812570400,2.1935703125,-0.130706787109375,-0.9813385009765625,-0.1197662353515625
1773251277822606300,2.2036064453125,-0.1304473876953125,-0.9799957275390625,-0.1251983642578125
1773251277832642300,2.213642333984375,-0.128936767578125,-0.9792938232421875,-0.1269378662109375
1773251277842678300,2.22367822265625,-0.12567138671875,-0.9824066162109375,-0.1225738525390625
1773251277852714200,2.23371435546875,-0.1254119873046875,-0.9823150634765625,-0.1176300048828125
1773251277862750200,2.243750244140625,-0.12457275390625,-0.9809417724609375,-0.115020751953125
1773251277872786200,2.2537861328125,-0.1264495849609375,-0.9786529541015625,-0.1146087646484375
1773251277882823200,2.2638232421875,-0.128631591796875,-0.97698974609375,-0.1140594482421875
1773251277892859400,2.273859375,-0.130096435546875,-0.9766693115234375,-0.114776611328125
1773251277902895400,2.283895263671875,-0.131866455078125,-0.97607421875,-0.115020751953125
1773251277912931300,2.293931396484375,-0.1331024169921875,-0.9767608642578125,-0.1126251220703125
1773251277922967600,2.303967529296875,-0.134613037109375,-0.97613525390625,-0.10894775390625
1773251277933003500,2.31400341796875,-0.1297760009765625,-0.97515869140625,-0.1085052490234375
1773251277943039500,2.32403955078125,-0.1255035400390625,-0.976409912109375,-0.109832763671875
1773251277953075500,2.334075439453125,-0.119293212890625,-0.975372314453125,-0.1095733642578125
1773251277963111400,2.344111328125,-0.1191558837890625,-0.974151611328125,-0.108673095703125
1773251277973147400,2.3541474609375,-0.1204681396484375,-0.97320556640625,-0.1124114990234375
1773251277983183400,2.364183349609375,-0.1219940185546875,-0.9733428955078125,-0.1148223876953125
1773251277993219300,2.37421923828125,-0.1209564208984375,-0.9737548828125,-0.114715576171875
1773251278003255300,2.38425537109375,-0.1219635009765625,-0.97528076171875,-0.1137237548828125
1773251278013292300,2.394292236328125,-0.1219940185546875,-0.978424072265625,-0.112884521484375
1773251278023328300,2.404328369140625,-0.12286376953125,-0.97900390625,-0.11663818359375
1773251278033364200,2.4143642578125,-0.1250152587890625,-0.9775238037109375,-0.1185150146484375
1773251278043400200,2.424400146484375,-0.126617431640625,-0.9786224365234375,-0.121734619140625
1773251278053436200,2.434436279296875,-0.127655029296875,-0.9793243408203125,-0.123443603515625
1773251278063472400,2.444472412109375,-0.1275634765625,-0.978607177734375,-0.1272125244140625
1773251278073508400,2.45450830078125,-0.12493896484375,-0.9779815673828125,-0.1300048828125
1773251278083544300,2.46454443359375,-0.1239166259765625,-0.9785308837890625,-0.1316986083984375
1773251278093580300,2.474580322265625,-0.1226348876953125,-0.9794464111328125,-0.12841796875
1773251278103616300,2.4846162109375,-0.1263427734375,-0.9800262451171875,-0.13275146484375
1773251278113652200,2.49465234375,-0.12554931640625,-0.9828033447265625,-0.1320953369140625
1773251278123688400,2.5046884765625,-0.1247100830078125,-0.985565185546875,-0.13043212890625
1773251278133724400,2.514724365234375,-0.12603759765625,-0.988006591796875,-0.1316986083984375
1773251278143761400,2.524761474609375,-0.1336669921875,-0.9904937744140625,-0.1364898681640625
1773251278153797400,2.53479736328125,-0.14154052734375,-0.9897918701171875,-0.14007568359375
1773251278163833300,2.544833251953125,-0.1473541259765625,-0.9889373779296875,-0.1423492431640625
1773251278173869300,2.554869384765625,-0.149810791015625,-0.987091064453125,-0.144439697265625
1773251278183905300,2.5649052734375,-0.149261474609375,-0.98675537109375,-0.1418609619140625
1773251278193941200,2.574941162109375,-0.146575927734375,-0.9837799072265625,-0.1394500732421875
1773251278203977500,2.5849775390625,-0.1471710205078125,-0.98052978515625,-0.13726806640625
1773251278214013400,2.595013427734375,-0.14892578125,-0.9774932861328125,-0.1363677978515625
1773251278224049400,2.60504931640625,-0.1516571044921875,-0.9727935791015625,-0.1398773193359375
1773251278234085400,2.61508544921875,-0.1497650146484375,-0.9695587158203125,-0.14105224609375
1773251278244121300,2.625121337890625,-0.14129638671875,-0.9700775146484375,-0.14288330078125
1773251278254157300,2.6351572265625,-0.13067626953125,-0.9704437255859375,-0.1429290771484375
1773251278264194600,2.645194580078125,-0.12823486328125,-0.9720001220703125,-0.1410675048828125
1773251278274230500,2.65523046875,-0.1337432861328125,-0.9731597900390625,-0.139617919921875
1773251278284266500,2.6652666015625,-0.1419830322265625,-0.973907470703125,-0.13909912109375
1773251278294302500,2.675302490234375,-0.1483306884765625,-0.974578857421875,-0.140167236328125
1773251278304338400,2.68533837890625,-0.1512451171875,-0.97265625,-0.1376800537109375
1773251278314374400,2.69537451171875,-0.15325927734375,-0.972930908203125,-0.1383819580078125
1773251278324410400,2.705410400390625,-0.15313720703125,-0.9752044677734375,-0.13836669921875
1773251278334446300,2.7154462890625,-0.15380859375,-0.9768829345703125,-0.140228271484375
1773251278344482300,2.725482421875,-0.1550445556640625,-0.9790496826171875,-0.138946533203125
1773251278354518500,2.7355185546875,-0.154541015625,-0.9780120849609375,-0.141082763671875
1773251278364554500,2.745554443359375,-0.149627685546875,-0.9791259765625,-0.1422271728515625
1773251278374590500,2.755590576171875,-0.1436309814453125,-0.9807586669921875,-0.144073486328125
1773251278384626400,2.76562646484375,-0.13671875,-0.9796905517578125,-0.1426239013671875
1773251278394663400,2.775663330078125,-0.132476806640625,-0.980255126953125,-0.139434814453125
1773251278404699400,2.785699462890625,-0.1296234130859375,-0.9834442138671875,-0.14080810546875
1773251278414735400,2.7957353515625,-0.130340576171875,-0.9836883544921875,-0.144012451171875
1773251278424771300,2.805771240234375,-0.13262939453125,-0.9833526611328125,-0.1443328857421875
1773251278434807300,2.815807373046875,-0.1392822265625,-0.9793243408203125,-0.139984130859375
1773251278444843300,2.82584326171875,-0.142181396484375,-0.9796905517578125,-0.1398162841796875
1773251278454879200,2.835879150390625,-0.141754150390625,-0.9803466796875,-0.1417694091796875
1773251278464915200,2.845915283203125,-0.137298583984375,-0.9795684814453125,-0.14532470703125
1773251278474951200,2.855951171875,-0.131134033203125,-0.9781036376953125,-0.1459197998046875
1773251278484987400,2.8659873046875,-0.1230926513671875,-0.9759368896484375,-0.145721435546875
1773251278495023600,2.876023681640625,-0.1183624267578125,-0.9754638671875,-0.142059326171875
1773251278505059600,2.8860595703125,-0.1170501708984375,-0.9735260009765625,-0.1378631591796875
1773251278515096300,2.896096435546875,-0.1195526123046875,-0.97161865234375,-0.1378631591796875
1773251278525132500,2.906132568359375,-0.12420654296875,-0.9707794189453125,-0.139495849609375
1773251278535168500,2.91616845703125,-0.1290283203125,-0.9705047607421875,-0.13958740234375
1773251278545204500,2.92620458984375,-0.132537841796875,-0.97027587890625,-0.138702392578125
1773251278555240400,2.936240478515625,-0.1319732666015625,-0.970367431640625,-0.1389312744140625
1773251278565276400,2.9462763671875,-0.1336212158203125,-0.9702301025390625,-0.1377716064453125
1773251278575312400,2.9563125,-0.13232421875,-0.9709014892578125,-0.1397552490234375
1773251278585348400,2.966348388671875,-0.1305389404296875,-0.970855712890625,-0.13873291015625
1773251278595384300,2.97638427734375,-0.1268463134765625,-0.9710693359375,-0.133514404296875
1773251278605420300,2.986420166015625,-0.1209716796875,-0.973602294921875,-0.1356658935546875
1773251278615456300,2.996456298828125,-0.118682861328125,-0.9770965576171875,-0.1388702392578125
1773251278625492200,3.0064921875,-0.1199493408203125,-0.9791259765625,-0.1375274658203125
1773251278635528400,3.016528564453125,-0.1221923828125,-0.9794921875,-0.1364898681640625
1773251278645565200,3.026565185546875,-0.129638671875,-0.9806671142578125,-0.1390228271484375
1773251278655601400,3.036601318359375,-0.1355743408203125,-0.979644775390625,-0.14215087890625
1773251278665637400,3.046637451171875,-0.1425628662109375,-0.978485107421875,-0.143585205078125
1773251278675673600,3.056673583984375,-0.14630126953125,-0.977264404296875,-0.141754150390625
1773251278685709600,3.06670947265625,-0.1469573974609375,-0.97674560546875,-0.139434814453125
1773251278695745500,3.07674560546875,-0.146087646484375,-0.9791107177734375,-0.1352386474609375
1773251278705781500,3.086781494140625,-0.1419525146484375,-0.9802093505859375,-0.1339569091796875
1773251278715817500,3.0968173828125,-0.1407012939453125,-0.9813690185546875,-0.1375885009765625
1773251278725853400,3.106853515625,-0.138397216796875,-0.984527587890625,-0.140411376953125
1773251278735889400,3.116889404296875,-0.1383209228515625,-0.98492431640625,-0.1406097412109375
1773251278745925400,3.12692529296875,-0.1398773193359375,-0.9869537353515625,-0.139739990234375
1773251278755961300,3.13696142578125,-0.1397552490234375,-0.98651123046875,-0.138092041015625
1773251278765997300,3.146997314453125,-0.139251708984375,-0.9887847900390625,-0.134246826171875
1773251278776034300,3.157034423828125,-0.139923095703125,-0.9879302978515625,-0.13507080078125
1773251278786070300,3.1670703125,-0.1465301513671875,-0.9873046875,-0.1389617919921875
1773251278796106200,3.177106201171875,-0.153564453125,-0.98468017578125,-0.141326904296875
1773251278806142200,3.18714208984375,-0.1563262939453125,-0.9793548583984375,-0.140899658203125
1773251278816178400,3.197178466796875,-0.158203125,-0.9759063720703125,-0.13751220703125
1773251278826214400,3.20721435546875,-0.1523895263671875,-0.9768829345703125,-0.1322479248046875
1773251278836250400,3.21725048828125,-0.146209716796875,-0.9774169921875,-0.130462646484375
1773251278846286300,3.227286376953125,-0.140899658203125,-0.9799652099609375,-0.1336517333984375
1773251278856322300,3.237322265625,-0.138031005859375,-0.977142333984375,-0.136810302734375
1773251278866358300,3.247358154296875,-0.1410675048828125,-0.9717559814453125,-0.13665771484375
1773251278876394200,3.257394287109375,-0.1402740478515625,-0.970916748046875,-0.135528564453125
1773251278886430200,3.26743017578125,-0.1342926025390625,-0.966278076171875,-0.13116455078125
1773251278896467500,3.277467529296875,-0.129150390625,-0.9662628173828125,-0.128143310546875
1773251278906503400,3.28750341796875,-0.1298980712890625,-0.9687042236328125,-0.1263885498046875
1773251278916539400,3.297539306640625,-0.1366729736328125,-0.97149658203125,-0.126678466796875
1773251278926575400,3.307575439453125,-0.146148681640625,-0.974639892578125,-0.1329345703125
1773251278936611300,3.317611328125,-0.1525115966796875,-0.977508544921875,-0.141937255859375
1773251278946647300,3.327647216796875,-0.1543426513671875,-0.9782562255859375,-0.144287109375
1773251278956683500,3.33768359375,-0.153778076171875,-0.98016357421875,-0.1443634033203125
1773251278966719500,3.347719482421875,-0.1528778076171875,-0.9775543212890625,-0.14007568359375
1773251278976755500,3.35775537109375,-0.1486053466796875,-0.977630615234375,-0.137939453125
1773251278986791400,3.36779150390625,-0.148193359375,-0.9781646728515625,-0.1360015869140625
1773251278996827400,3.377827392578125,-0.144287109375,-0.9760284423828125,-0.1390228271484375
1773251279006863400,3.38786328125,-0.1432647705078125,-0.97528076171875,-0.142120361328125
1773251279016900400,3.397900390625,-0.1397552490234375,-0.9725494384765625,-0.1469879150390625
1773251279026936300,3.407936279296875,-0.134735107421875,-0.974029541015625,-0.1503448486328125
1773251279036972300,3.41797216796875,-0.1313934326171875,-0.9756622314453125,-0.1482391357421875
1773251279047008300,3.42800830078125,-0.134307861328125,-0.9767913818359375,-0.144317626953125
1773251279057044200,3.438044189453125,-0.1392822265625,-0.9759368896484375,-0.1425933837890625
1773251279067080400,3.44808056640625,-0.1450042724609375,-0.9749298095703125,-0.1431427001953125
1773251279077116400,3.458116455078125,-0.1529541015625,-0.974395751953125,-0.1453094482421875
1773251279087152400,3.46815234375,-0.159576416015625,-0.9714508056640625,-0.147064208984375
1773251279097188400,3.478188232421875,-0.1631317138671875,-0.970947265625,-0.14849853515625
1773251279107224600,3.488224609375,-0.160430908203125,-0.9688873291015625,-0.146636962890625
1773251279117260500,3.498260498046875,-0.156982421875,-0.969757080078125,-0.1462860107421875
1773251279127296500,3.508296630859375,-0.15081787109375,-0.96868896484375,-0.1463775634765625
1773251279137333500,3.51833349609375,-0.145172119140625,-0.96728515625,-0.1440277099609375
1773251279147369500,3.528369384765625,-0.1380462646484375,-0.97003173828125,-0.1417694091796875
1773251279157405400,3.538405517578125,-0.137359619140625,-0.972991943359375,-0.1458587646484375
1773251279167441400,3.54844140625,-0.1398162841796875,-0.97393798828125,-0.1472320556640625
1773251279177477400,3.558477294921875,-0.1450958251953125,-0.976348876953125,-0.1466522216796875
1773251279187513600,3.568513671875,-0.1467742919921875,-0.9768524169921875,-0.1430511474609375
1773251279197549600,3.578549560546875,-0.1462860107421875,-0.9773101806640625,-0.1427459716796875
1773251279207585500,3.58858544921875,-0.142578125,-0.978179931640625,-0.1438446044921875
1773251279217621500,3.59862158203125,-0.1400909423828125,-0.9790191650390625,-0.143798828125
1773251279227657500,3.608657470703125,-0.138824462890625,-0.9815826416015625,-0.1477203369140625
1773251279237693400,3.618693359375,-0.1417236328125,-0.9816741943359375,-0.1475830078125
1773251279247729700,3.628729736328125,-0.147186279296875,-0.981353759765625,-0.1444854736328125
1773251279257765600,3.638765625,-0.1536865234375,-0.97955322265625,-0.142852783203125
1773251279267802400,3.64880224609375,-0.1571044921875,-0.97955322265625,-0.14031982421875
1773251279277838600,3.658838623046875,-0.1580047607421875,-0.978729248046875,-0.1417083740234375
1773251279287874600,3.66887451171875,-0.158050537109375,-0.976806640625,-0.142578125
1773251279297910500,3.67891064453125,-0.1533203125,-0.9739837646484375,-0.1416473388671875
1773251279307946500,3.688946533203125,-0.14849853515625,-0.9731903076171875,-0.141632080078125
1773251279317982500,3.698982421875,-0.145751953125,-0.974151611328125,-0.1404876708984375
1773251279328018400,3.709018310546875,-0.146575927734375,-0.9759979248046875,-0.1387176513671875
1773251279338054400,3.719054443359375,-0.150115966796875,-0.9774627685546875,-0.137115478515625
1773251279348090400,3.72909033203125,-0.1578369140625,-0.9790191650390625,-0.139068603515625
1773251279358126300,3.739126220703125,-0.162933349609375,-0.97808837890625,-0.144561767578125
1773251279368162300,3.749162353515625,-0.16436767578125,-0.979156494140625,-0.144317626953125
1773251279378198500,3.759198486328125,-0.1651763916015625,-0.9771881103515625,-0.14483642578125
1773251279388235500,3.769235595703125,-0.1684722900390625,-0.974853515625,-0.142730712890625
1773251279398271500,3.779271484375,-0.168914794921875,-0.974639892578125,-0.1398162841796875
1773251279408307500,3.789307373046875,-0.167633056640625,-0.972503662109375,-0.142364501953125
1773251279418343400,3.799343505859375,-0.1638031005859375,-0.971588134765625,-0.1479034423828125
1773251279428379600,3.809379638671875,-0.1580657958984375,-0.9749298095703125,-0.1501312255859375
1773251279438415600,3.81941552734375,-0.1539306640625,-0.9769439697265625,-0.1479644775390625
1773251279448451600,3.82945166015625,-0.1511688232421875,-0.9794921875,-0.14483642578125
1773251279458487600,3.839487548828125,-0.1539459228515625,-0.98138427734375,-0.143157958984375
1773251279468523500,3.8495234375,-0.1626129150390625,-0.9774627685546875,-0.141632080078125
1773251279478559500,3.8595595703125,-0.1677093505859375,-0.975860595703125,-0.1426239013671875
1773251279488595500,3.869595458984375,-0.163421630859375,-0.9757080078125,-0.1404571533203125
1773251279498631400,3.87963134765625,-0.155426025390625,-0.974639892578125,-0.1435089111328125
1773251279508668400,3.88966845703125,-0.1524658203125,-0.9749755859375,-0.14483642578125
1773251279518704400,3.899704345703125,-0.1568603515625,-0.9746856689453125,-0.14764404296875
1773251279528740400,3.909740234375,-0.1652374267578125,-0.9734649658203125,-0.1485443115234375
1773251279538776300,3.9197763671875,-0.168212890625,-0.9748382568359375,-0.1492767333984375
1773251279548812300,3.929812255859375,-0.1683807373046875,-0.976654052734375,-0.1485595703125
1773251279558848500,3.9398486328125,-0.1641082763671875,-0.9765777587890625,-0.1483612060546875
1773251279568884700,3.949884765625,-0.1588592529296875,-0.9759979248046875,-0.1463470458984375
1773251279578920700,3.959920654296875,-0.1549224853515625,-0.9748077392578125,-0.1477508544921875
1773251279588956700,3.969956787109375,-0.1510772705078125,-0.9736480712890625,-0.1477508544921875
1773251279598992600,3.97999267578125,-0.14837646484375,-0.973846435546875,-0.147705078125
1773251279609028600,3.990028564453125,-0.14849853515625,-0.9750518798828125,-0.1474151611328125
1773251279619064600,4.000064697265625,-0.1517486572265625,-0.97613525390625,-0.14801025390625
1773251279629101600,4.0101015625,-0.1551055908203125,-0.9741973876953125,-0.148284912109375
1773251279639137500,4.020137451171875,-0.1570892333984375,-0.9730224609375,-0.14874267578125
1773251279649173500,4.030173583984375,-0.154449462890625,-0.9707489013671875,-0.1513519287109375
1773251279659209500,4.04020947265625,-0.150909423828125,-0.969482421875,-0.151641845703125
1773251279669245400,4.050245361328125,-0.148956298828125,-0.96954345703125,-0.1457977294921875
1773251279679281400,4.060281494140625,-0.1509246826171875,-0.969512939453125,-0.1434173583984375
1773251279689317400,4.0703173828125,-0.1506500244140625,-0.9698028564453125,-0.14727783203125
1773251279699353300,4.080353271484375,-0.147735595703125,-0.97161865234375,-0.1523895263671875
1773251279709389600,4.0903896484375,-0.14459228515625,-0.972015380859375,-0.15447998046875
1773251279719425500,4.100425537109375,-0.1417999267578125,-0.9714202880859375,-0.154571533203125
1773251279729461500,4.11046142578125,-0.1394500732421875,-0.96990966796875,-0.1541748046875
1773251279739497500,4.12049755859375,-0.13995361328125,-0.9703216552734375,-0.1539459228515625
1773251279749533400,4.130533447265625,-0.140594482421875,-0.97210693359375,-0.152069091796875
1773251279759570700,4.14057080078125,-0.14483642578125,-0.974456787109375,-0.142120361328125
1773251279769606700,4.150606689453125,-0.1525726318359375,-0.9788665771484375,-0.134185791015625
1773251279779642600,4.160642578125,-0.1594696044921875,-0.977325439453125,-0.131561279296875
1773251279789678600,4.1706787109375,-0.1620330810546875,-0.9772491455078125,-0.1378326416015625
1773251279799714600,4.180714599609375,-0.16082763671875,-0.9770660400390625,-0.145782470703125
1773251279809750500,4.19075048828125,-0.1569366455078125,-0.9763946533203125,-0.1509246826171875
1773251279819786500,4.200786376953125,-0.1514129638671875,-0.97625732421875,-0.149505615234375
1773251279829822500,4.210822509765625,-0.1504974365234375,-0.9762420654296875,-0.1440277099609375
1773251279839858400,4.2208583984375,-0.1551055908203125,-0.976837158203125,-0.13763427734375
1773251279849894400,4.230894287109375,-0.1585845947265625,-0.977874755859375,-0.141815185546875
1773251279859930600,4.2409306640625,-0.157806396484375,-0.97802734375,-0.14263916015625
1773251279869966600,4.250966552734375,-0.15447998046875,-0.976959228515625,-0.1440582275390625
1773251279880003300,4.26100341796875,-0.1508941650390625,-0.9785003662109375,-0.1431427001953125
1773251279890039600,4.27103955078125,-0.1490478515625,-0.9793701171875,-0.1409454345703125
1773251279900075500,4.281075439453125,-0.1474151611328125,-0.9771575927734375,-0.1374053955078125
1773251279910111500,4.291111572265625,-0.149932861328125,-0.9780731201171875,-0.1375579833984375
1773251279920147500,4.3011474609375,-0.1513824462890625,-0.9766082763671875,-0.1410369873046875
1773251279930183400,4.311183349609375,-0.1532745361328125,-0.97412109375,-0.1435394287109375
1773251279940219400,4.321219482421875,-0.155120849609375,-0.972412109375,-0.1448516845703125
1773251279950255400,4.33125537109375,-0.153533935546875,-0.9722442626953125,-0.145965576171875
1773251279960291600,4.34129150390625,-0.1484527587890625,-0.9708404541015625,-0.1460113525390625
1773251279970327600,4.35132763671875,-0.142120361328125,-0.972930908203125,-0.1425323486328125
1773251279980363500,4.361363525390625,-0.141937255859375,-0.9749908447265625,-0.1396026611328125
1773251279990399500,4.3713994140625,-0.145294189453125,-0.9757537841796875,-0.1422576904296875
1773251280000436500,4.3814365234375,-0.1491851806640625,-0.9756927490234375,-0.146392822265625
1773251280010472400,4.391472412109375,-0.1535491943359375,-0.976409912109375,-0.1499481201171875
1773251280020508400,4.40150830078125,-0.1507568359375,-0.9764556884765625,-0.1510162353515625
1773251280030544600,4.411544677734375,-0.148651123046875,-0.974853515625,-0.1489715576171875
1773251280040580600,4.42158056640625,-0.148468017578125,-0.974334716796875,-0.1505126953125
1773251280050616600,4.431616455078125,-0.146270751953125,-0.97430419921875,-0.151031494140625
1773251280060652500,4.441652587890625,-0.144622802734375,-0.9720611572265625,-0.15191650390625
1773251280070688500,4.4516884765625,-0.1397705078125,-0.9707489013671875,-0.1535797119140625
1773251280080724500,4.461724365234375,-0.132415771484375,-0.97320556640625,-0.152679443359375
1773251280090760400,4.471760498046875,-0.131439208984375,-0.977203369140625,-0.1502838134765625
1773251280100796400,4.48179638671875,-0.1320343017578125,-0.9800872802734375,-0.146575927734375
1773251280110832400,4.491832275390625,-0.1387176513671875,-0.9779815673828125,-0.143524169921875
1773251280120869400,4.501869384765625,-0.14898681640625,-0.9752655029296875,-0.1436309814453125
1773251280130905300,4.5119052734375,-0.1493072509765625,-0.974090576171875,-0.1407012939453125
1773251280140941600,4.521941650390625,-0.1442718505859375,-0.9730224609375,-0.14581298828125
1773251280150977500,4.5319775390625,-0.13751220703125,-0.972808837890625,-0.146636962890625
1773251280161013500,4.542013427734375,-0.1364288330078125,-0.9735107421875,-0.145782470703125
1773251280171049500,4.552049560546875,-0.1417999267578125,-0.9745635986328125,-0.1448822021484375
1773251280181085700,4.562085693359375,-0.1475372314453125,-0.9783935546875,-0.139251708984375
1773251280191121700,4.57212158203125,-0.1505279541015625,-0.983856201171875,-0.1395263671875
1773251280201157600,4.58215771484375,-0.1483154296875,-0.98480224609375,-0.1447601318359375
1773251280211193600,4.592193603515625,-0.143890380859375,-0.9884185791015625,-0.1498565673828125
1773251280221229600,4.6022294921875,-0.1439971923828125,-0.9875946044921875,-0.14776611328125
1773251280231265500,4.612265625,-0.1400909423828125,-0.987274169921875,-0.146636962890625
1773251280241302500,4.622302490234375,-0.138275146484375,-0.9857330322265625,-0.1454925537109375
1773251280251338500,4.63233837890625,-0.1389617919921875,-0.985015869140625,-0.1439361572265625
1773251280261374500,4.64237451171875,-0.13836669921875,-0.983154296875,-0.1410675048828125
1773251280271410700,4.65241064453125,-0.1375732421875,-0.9832763671875,-0.1439208984375
1773251280281446700,4.66244677734375,-0.1373138427734375,-0.9799041748046875,-0.14520263671875
1773251280291482600,4.672482666015625,-0.1356048583984375,-0.978179931640625,-0.1433258056640625
1773251280301518600,4.6825185546875,-0.132293701171875,-0.977935791015625,-0.1443328857421875
1773251280311554600,4.692554443359375,-0.1290130615234375,-0.976043701171875,-0.144989013671875
1773251280321590800,4.7025908203125,-0.1305389404296875,-0.9753265380859375,-0.1441650390625
1773251280331626800,4.712626708984375,-0.13470458984375,-0.974853515625,-0.142333984375
1773251280341662700,4.722662841796875,-0.135345458984375,-0.974273681640625,-0.1400909423828125
1773251280351698700,4.73269873046875,-0.136077880859375,-0.975189208984375,-0.138885498046875
1773251280361735700,4.742735595703125,-0.1326141357421875,-0.9758148193359375,-0.13873291015625
1773251280371771600,4.752771728515625,-0.1316680908203125,-0.976104736328125,-0.1386871337890625
1773251280381807600,4.7628076171875,-0.130218505859375,-0.9780731201171875,-0.139129638671875
1773251280391843600,4.772843505859375,-0.1276092529296875,-0.9766082763671875,-0.1399078369140625
1773251280401879600,4.782879638671875,-0.12664794921875,-0.9747314453125,-0.1387176513671875
1773251280411915500,4.79291552734375,-0.126800537109375,-0.9758453369140625,-0.13916015625
1773251280421951500,4.802951416015625,-0.12811279296875,-0.976226806640625,-0.1401824951171875
1773251280431987500,4.812987548828125,-0.131256103515625,-0.9754180908203125,-0.137237548828125
1773251280442023400,4.8230234375,-0.131256103515625,-0.972991943359375,-0.136749267578125
1773251280452059400,4.833059326171875,-0.1327972412109375,-0.97412109375,-0.1388397216796875
1773251280462095600,4.843095703125,-0.1325225830078125,-0.9769134521484375,-0.1369476318359375
1773251280472132600,4.853132568359375,-0.1299591064453125,-0.975982666015625,-0.1352386474609375
1773251280482168600,4.86316845703125,-0.129638671875,-0.9767913818359375,-0.13470458984375
1773251280492204500,4.87320458984375,-0.1280364990234375,-0.979278564453125,-0.1348876953125
1773251280502240800,4.88324072265625,-0.124542236328125,-0.980255126953125,-0.137725830078125
1773251280512276700,4.89327685546875,-0.1252288818359375,-0.983062744140625,-0.1389617919921875
1773251280522312700,4.903312744140625,-0.12579345703125,-0.9827880859375,-0.140960693359375
1773251280532348700,4.9133486328125,-0.127471923828125,-0.983062744140625,-0.14111328125
1773251280542384600,4.923384521484375,-0.12982177734375,-0.9852752685546875,-0.1422119140625
1773251280552420600,4.933420654296875,-0.132568359375,-0.9842071533203125,-0.1410369873046875
1773251280562456600,4.94345654296875,-0.1338958740234375,-0.98236083984375,-0.136383056640625
1773251280572492500,4.953492431640625,-0.13214111328125,-0.982177734375,-0.1348419189453125
1773251280582528500,4.963528564453125,-0.1318206787109375,-0.9815216064453125,-0.1356353759765625
1773251280592565500,4.9735654296875,-0.128265380859375,-0.98028564453125,-0.1371002197265625
1773251280602601500,4.9836015625,-0.1272125244140625,-0.977813720703125,-0.137359619140625
1773251280612637400,4.993637451171875,-0.1255950927734375,-0.979248046875,-0.142425537109375
1773251280622673400,5.00367333984375,-0.1254730224609375,-0.97998046875,-0.1414337158203125
1773251280632709400,5.01370947265625,-0.1260986328125,-0.9807586669921875,-0.1424560546875
1773251280642745600,5.02374560546875,-0.12664794921875,-0.978759765625,-0.1371307373046875
1773251280652781600,5.033781494140625,-0.12725830078125,-0.97979736328125,-0.136260986328125
1773251280662817500,5.043817626953125,-0.12725830078125,-0.9783172607421875,-0.1381072998046875
1773251280672853800,5.053853759765625,-0.1283111572265625,-0.97705078125,-0.1396331787109375
1773251280682889700,5.0638896484375,-0.1295318603515625,-0.9760284423828125,-0.14019775390625
1773251280692925700,5.07392578125,-0.1279754638671875,-0.97515869140625,-0.138702392578125
1773251280702961700,5.083961669921875,-0.1283111572265625,-0.97412109375,-0.136199951171875
1773251280712997600,5.09399755859375,-0.1273651123046875,-0.975555419921875,-0.1373138427734375
1773251280723034600,5.10403466796875,-0.12548828125,-0.977294921875,-0.141448974609375
1773251280733070600,5.114070556640625,-0.12567138671875,-0.9761810302734375,-0.143341064453125
1773251280743106600,5.1241064453125,-0.1272125244140625,-0.9748077392578125,-0.1395111083984375
1773251280753142500,5.134142578125,-0.1272735595703125,-0.9746856689453125,-0.1383819580078125
1773251280763178500,5.144178466796875,-0.1310882568359375,-0.9749908447265625,-0.1361236572265625
1773251280773214500,5.15421435546875,-0.1317291259765625,-0.9773712158203125,-0.1362152099609375
1773251280783250700,5.164250732421875,-0.128997802734375,-0.977447509765625,-0.1348419189453125
1773251280793286700,5.17428662109375,-0.129669189453125,-0.977294921875,-0.1325531005859375
1773251280803322600,5.184322509765625,-0.1278076171875,-0.9770660400390625,-0.1345367431640625
1773251280813358600,5.194358642578125,-0.127105712890625,-0.9769287109375,-0.1349639892578125
1773251280823394600,5.20439453125,-0.12744140625,-0.9779205322265625,-0.139404296875
1773251280833431600,5.214431640625,-0.1265716552734375,-0.9769287109375,-0.139678955078125
1773251280843467500,5.224467529296875,-0.1269683837890625,-0.9779510498046875,-0.1356964111328125
1773251280853503700,5.234503662109375,-0.1274871826171875,-0.9789276123046875,-0.1356201171875
1773251280863539700,5.244539794921875,-0.1287078857421875,-0.9775390625,-0.130889892578125
1773251280873575700,5.25457568359375,-0.12908935546875,-0.9781036376953125,-0.1305694580078125
1773251280883611600,5.264611572265625,-0.1287841796875,-0.9785003662109375,-0.13043212890625
1773251280893647600,5.274647705078125,-0.130401611328125,-0.976776123046875,-0.12823486328125
1773251280903683600,5.28468359375,-0.1304931640625,-0.9769744873046875,-0.1292724609375
1773251280913719600,5.294719482421875,-0.1282501220703125,-0.976837158203125,-0.1290283203125
1773251280923755500,5.304755615234375,-0.125579833984375,-0.97711181640625,-0.1285858154296875
1773251280933791700,5.314791748046875,-0.1221771240234375,-0.976348876953125,-0.1277618408203125
1773251280943828500,5.324828369140625,-0.1215362548828125,-0.9755859375,-0.1254425048828125
1773251280953864400,5.334864501953125,-0.122314453125,-0.975006103515625,-0.1244049072265625
1773251280963900700,5.344900634765625,-0.12457275390625,-0.9741668701171875,-0.127197265625
1773251280973936600,5.3549365234375,-0.127410888671875,-0.9744415283203125,-0.13238525390625
1773251280983972600,5.36497265625,-0.1295928955078125,-0.973388671875,-0.1309814453125
1773251280994008600,5.375008544921875,-0.129180908203125,-0.97509765625,-0.127349853515625
1773251281004044500,5.38504443359375,-0.1301727294921875,-0.9767608642578125,-0.1221771240234375
1773251281014080500,5.39508056640625,-0.1368408203125,-0.974517822265625,-0.121124267578125
1773251281024116500,5.405116455078125,-0.1446990966796875,-0.97198486328125,-0.1268463134765625
1773251281034152400,5.41515234375,-0.143157958984375,-0.9724578857421875,-0.13409423828125
1773251281044188400,5.4251884765625,-0.13531494140625,-0.9735565185546875,-0.138458251953125
1773251281054224400,5.435224365234375,-0.1212921142578125,-0.9783782958984375,-0.135589599609375
1773251281064260600,5.445260498046875,-0.1100616455078125,-0.982940673828125,-0.133453369140625
1773251281074297600,5.455297607421875,-0.1082611083984375,-0.9844970703125,-0.1317291259765625
1773251281084333600,5.46533349609375,-0.1177215576171875,-0.9820556640625,-0.1339874267578125
1773251281094369500,5.47536962890625,-0.1363677978515625,-0.978240966796875,-0.1367645263671875
1773251281104405800,5.48540576171875,-0.1457977294921875,-0.976654052734375,-0.1375579833984375
1773251281114441700,5.495441650390625,-0.1415252685546875,-0.97515869140625,-0.134765625
1773251281124477700,5.505477783203125,-0.1333770751953125,-0.972198486328125,-0.1311187744140625
1773251281134513700,5.515513671875,-0.1318206787109375,-0.9744415283203125,-0.1294403076171875
1773251281144549600,5.525549560546875,-0.137054443359375,-0.9792327880859375,-0.1290740966796875
1773251281154585600,5.535585693359375,-0.144622802734375,-0.9825592041015625,-0.131439208984375
1773251281164621600,5.54562158203125,-0.147369384765625,-0.987213134765625,-0.1337738037109375
1773251281174657500,5.555657470703125,-0.1443634033203125,-0.9880828857421875,-0.1379547119140625
1773251281184694300,5.5656943359375,-0.140716552734375,-0.9872894287109375,-0.14324951171875
1773251281194730200,5.575730224609375,-0.1370086669921875,-0.9838714599609375,-0.1441192626953125
1773251281204766200,5.58576611328125,-0.1357269287109375,-0.9816436767578125,-0.14111328125
1773251281214802200,5.59580224609375,-0.13763427734375,-0.9818878173828125,-0.1364288330078125
1773251281224838100,5.605838134765625,-0.1352691650390625,-0.9803619384765625,-0.1339111328125
1773251281234874400,5.615874267578125,-0.1338653564453125,-0.9792633056640625,-0.13360595703125
1773251281244910300,5.625910400390625,-0.135345458984375,-0.980499267578125,-0.13726806640625
1773251281254946300,5.6359462890625,-0.1371612548828125,-0.9795379638671875,-0.138519287109375
1773251281264982300,5.645982177734375,-0.13775634765625,-0.9790496826171875,-0.137969970703125
1773251281275018200,5.656018310546875,-0.1376800537109375,-0.979248046875,-0.13702392578125
1773251281285054200,5.66605419921875,-0.1353607177734375,-0.978912353515625,-0.137725830078125
1773251281295090200,5.676090087890625,-0.1338958740234375,-0.9794769287109375,-0.1357421875
1773251281305127200,5.686127197265625,-0.136688232421875,-0.9784393310546875,-0.1322784423828125
1773251281315163100,5.6961630859375,-0.138153076171875,-0.975067138671875,-0.1322479248046875
1773251281325199000,5.70619921875,-0.1395416259765625,-0.974365234375,-0.1327667236328125
1773251281335235000,5.716235107421875,-0.1386260986328125,-0.975311279296875,-0.135406494140625
1773251281345271000,5.72627099609375,-0.13525390625,-0.975738525390625,-0.1378021240234375
1773251281355307000,5.73630712890625,-0.1297149658203125,-0.975311279296875,-0.1384429931640625
1773251281365343200,5.74634326171875,-0.1276702880859375,-0.97607421875,-0.1367034912109375
1773251281375379200,5.756379150390625,-0.12603759765625,-0.9789276123046875,-0.1349029541015625
1773251281385415400,5.76641552734375,-0.1291961669921875,-0.98028564453125,-0.135284423828125
1773251281395451400,5.776451416015625,-0.1348876953125,-0.979583740234375,-0.139007568359375
1773251281405487400,5.7864873046875,-0.13812255859375,-0.980377197265625,-0.1411590576171875
1773251281415524400,5.7965244140625,-0.139251708984375,-0.9803924560546875,-0.1401519775390625
1773251281425560300,5.806560302734375,-0.142608642578125,-0.9789276123046875,-0.1396484375
1773251281435596300,5.81659619140625,-0.1463623046875,-0.9801483154296875,-0.137176513671875
1773251281445632300,5.82663232421875,-0.1428985595703125,-0.979217529296875,-0.134735107421875
1773251281455668200,5.836668212890625,-0.1392364501953125,-0.9780120849609375,-0.1332550048828125
1773251281465704200,5.8467041015625,-0.1342315673828125,-0.9800567626953125,-0.1334075927734375
1773251281475740200,5.856740234375,-0.130340576171875,-0.9807586669921875,-0.13580322265625
1773251281485776100,5.866776123046875,-0.1309356689453125,-0.9821624755859375,-0.13836669921875
1773251281495812000,5.87681201171875,-0.1302490234375,-0.9799041748046875,-0.138336181640625
1773251281505848000,5.88684814453125,-0.133270263671875,-0.9789886474609375,-0.135467529296875
1773251281515884300,5.89688427734375,-0.1360931396484375,-0.978759765625,-0.1313323974609375
1773251281525920300,5.906920166015625,-0.138519287109375,-0.979522705078125,-0.1318511962890625
1773251281535957000,5.91695703125,-0.1394805908203125,-0.9765472412109375,-0.136688232421875
1773251281545993200,5.9269931640625,-0.1420745849609375,-0.978851318359375,-0.136627197265625
1773251281556029400,5.937029541015625,-0.1441650390625,-0.976226806640625,-0.1387176513671875
1773251281566065400,5.9470654296875,-0.1446685791015625,-0.972991943359375,-0.1404266357421875
1773251281576101400,5.957101318359375,-0.1455230712890625,-0.973297119140625,-0.1406707763671875
1773251281586137300,5.967137451171875,-0.142730712890625,-0.9738311767578125,-0.1407623291015625
1773251281596173300,5.97717333984375,-0.1414337158203125,-0.972564697265625,-0.136932373046875
1773251281606209300,5.987209228515625,-0.138885498046875,-0.970977783203125,-0.1329345703125
1773251281616245200,5.997245361328125,-0.134246826171875,-0.973052978515625,-0.133941650390625
1773251281626281200,6.00728125,-0.133819580078125,-0.9730377197265625,-0.132904052734375
1773251281636317200,6.017317138671875,-0.1335296630859375,-0.9749603271484375,-0.1322174072265625
1773251281646354200,6.027354248046875,-0.13800048828125,-0.9760284423828125,-0.13433837890625
1773251281656390100,6.03739013671875,-0.1432647705078125,-0.9769287109375,-0.1337738037109375
1773251281666426000,6.047426025390625,-0.1467742919921875,-0.9770660400390625,-0.1351470947265625
1773251281676462000,6.057462158203125,-0.1460723876953125,-0.9783172607421875,-0.132965087890625
1773251281686498000,6.067498046875,-0.1430511474609375,-0.9785614013671875,-0.1320343017578125
1773251281696534300,6.0775341796875,-0.1399383544921875,-0.9796905517578125,-0.12939453125
1773251281706570200,6.0875703125,-0.139617919921875,-0.9783782958984375,-0.126861572265625
1773251281716606200,6.097606201171875,-0.1412506103515625,-0.981597900390625,-0.12713623046875
1773251281726642200,6.10764208984375,-0.1461029052734375,-0.9845428466796875,-0.1267547607421875
1773251281736678100,6.11767822265625,-0.1514892578125,-0.988555908203125,-0.12652587890625
1773251281746714000,6.127714111328125,-0.1555023193359375,-0.9910736083984375,-0.1243896484375
1773251281756750000,6.13775,-0.1595001220703125,-0.9916534423828125,-0.1213531494140625
1773251281766787300,6.147787353515625,-0.162353515625,-0.986419677734375,-0.119232177734375
1773251281776823300,6.1578232421875,-0.1591033935546875,-0.9891815185546875,-0.1158447265625
1773251281786859300,6.167859375,-0.156158447265625,-0.987030029296875,-0.12127685546875
1773251281796895200,6.177895263671875,-0.155853271484375,-0.9788360595703125,-0.121734619140625
1773251281806931200,6.18793115234375,-0.15606689453125,-0.9744415283203125,-0.1199493408203125
1773251281816967200,6.19796728515625,-0.156707763671875,-0.9705047607421875,-0.1194915771484375
1773251281827003100,6.208003173828125,-0.1582489013671875,-0.970672607421875,-0.12060546875
1773251281837039400,6.218039306640625,-0.1583251953125,-0.9715423583984375,-0.118682861328125
1773251281847075300,6.228075439453125,-0.1593170166015625,-0.9703216552734375,-0.118194580078125
1773251281857111300,6.238111328125,-0.1578826904296875,-0.9723052978515625,-0.1185760498046875
1773251281867147300,6.248147216796875,-0.155548095703125,-0.9739532470703125,-0.1242523193359375
1773251281877184300,6.258184326171875,-0.15631103515625,-0.97332763671875,-0.1268157958984375
1773251281887220200,6.26822021484375,-0.1595916748046875,-0.9735870361328125,-0.1276397705078125
1773251281897256200,6.278256103515625,-0.161956787109375,-0.97314453125,-0.126678466796875
1773251281907292200,6.288292236328125,-0.1611328125,-0.97357177734375,-0.125396728515625
1773251281917328100,6.298328125,-0.1595611572265625,-0.9774627685546875,-0.1266021728515625
1773251281927364000,6.308364013671875,-0.1587371826171875,-0.9778289794921875,-0.126251220703125
1773251281937400000,6.318400146484375,-0.1623382568359375,-0.9749908447265625,-0.1274566650390625
1773251281947436300,6.328436279296875,-0.1681671142578125,-0.9723052978515625,-0.1282196044921875
1773251281957472300,6.33847216796875,-0.1721954345703125,-0.9709930419921875,-0.1319122314453125
1773251281967508200,6.34850830078125,-0.1703338623046875,-0.97161865234375,-0.1312255859375
1773251281977544200,6.358544189453125,-0.166595458984375,-0.9717254638671875,-0.127532958984375
1773251281987581200,6.368581298828125,-0.1600799560546875,-0.9751739501953125,-0.1257781982421875
1773251281997617200,6.3786171875,-0.1558074951171875,-0.9785308837890625,-0.129425048828125
1773251282007653000,6.388653076171875,-0.1561126708984375,-0.97955322265625,-0.13323974609375
1773251282017689300,6.398689453125,-0.158111572265625,-0.9775238037109375,-0.1332550048828125
1773251282027725300,6.408725341796875,-0.1626739501953125,-0.9742431640625,-0.1314697265625
1773251282037761300,6.41876123046875,-0.162750244140625,-0.9761962890625,-0.12847900390625
1773251282047797200,6.42879736328125,-0.1568603515625,-0.9759979248046875,-0.1259918212890625
1773251282057833200,6.438833251953125,-0.152130126953125,-0.9760894775390625,-0.124908447265625
1773251282067869200,6.448869140625,-0.1535491943359375,-0.9775848388671875,-0.1254730224609375
1773251282077905200,6.4589052734375,-0.162078857421875,-0.97857666015625,-0.1251373291015625
1773251282087941000,6.468941162109375,-0.169921875,-0.9765777587890625,-0.127593994140625
1773251282097977000,6.47897705078125,-0.171478271484375,-0.9786529541015625,-0.129608154296875
1773251282108014000,6.48901416015625,-0.1678009033203125,-0.9796600341796875,-0.1300506591796875
1773251282118050000,6.499050048828125,-0.1632843017578125,-0.97894287109375,-0.1289215087890625
1773251282128086300,6.509086181640625,-0.1607666015625,-0.9776611328125,-0.1255950927734375
1773251282138122200,6.519122314453125,-0.1577606201171875,-0.9782562255859375,-0.122100830078125
1773251282148158200,6.529158203125,-0.157745361328125,-0.978668212890625,-0.120941162109375
1773251282158194200,6.539194091796875,-0.15838623046875,-0.980438232421875,-0.1194305419921875
1773251282168230400,6.54923046875,-0.16033935546875,-0.9811553955078125,-0.120208740234375
1773251282178266400,6.559266357421875,-0.1619415283203125,-0.9832611083984375,-0.1214599609375
1773251282188302000,6.569302001953125,-0.163421630859375,-0.983154296875,-0.1198577880859375
1773251282198338000,6.579338134765625,-0.165924072265625,-0.98345947265625,-0.1181182861328125
1773251282208374000,6.5893740234375,-0.1669921875,-0.9828643798828125,-0.118896484375
1773251282218411000,6.599410888671875,-0.1643218994140625,-0.98321533203125,-0.1213531494140625
1773251282228447000,6.609447021484375,-0.1634521484375,-0.9803924560546875,-0.1234588623046875
1773251282238483000,6.61948291015625,-0.1633148193359375,-0.9778289794921875,-0.1240081787109375
1773251282248519000,6.629518798828125,-0.165496826171875,-0.97564697265625,-0.120849609375
1773251282258555000,6.639554931640625,-0.1662139892578125,-0.97381591796875,-0.1197662353515625
1773251282268590800,6.6495908203125,-0.163726806640625,-0.9726409912109375,-0.1225128173828125
1773251282278626800,6.659626708984375,-0.1611328125,-0.97393798828125,-0.1237945556640625
1773251282288662800,6.669662841796875,-0.1577911376953125,-0.9739990234375,-0.1251678466796875
1773251282298699000,6.679698974609375,-0.151580810546875,-0.9746551513671875,-0.123626708984375
1773251282308735000,6.68973486328125,-0.1483306884765625,-0.9763031005859375,-0.12371826171875
1773251282318771200,6.699771240234375,-0.149383544921875,-0.97723388671875,-0.126983642578125
1773251282328807200,6.70980712890625,-0.153045654296875,-0.9791717529296875,-0.130401611328125
1773251282338844200,6.71984423828125,-0.1564178466796875,-0.9787139892578125,-0.1304473876953125
1773251282348880100,6.729880126953125,-0.15960693359375,-0.97796630859375,-0.1306610107421875
1773251282358916000,6.739916015625,-0.16009521484375,-0.9781646728515625,-0.13177490234375
1773251282368952000,6.7499521484375,-0.1603240966796875,-0.978424072265625,-0.13458251953125
1773251282378988000,6.759988037109375,-0.1602935791015625,-0.9777679443359375,-0.1335601806640625
1773251282389024000,6.77002392578125,-0.1591644287109375,-0.9769287109375,-0.1293182373046875
1773251282399060000,6.78006005859375,-0.1561737060546875,-0.9785308837890625,-0.127532958984375
1773251282409096000,6.790095947265625,-0.1531219482421875,-0.9775543212890625,-0.127197265625
1773251282419132000,6.8001318359375,-0.151153564453125,-0.9768524169921875,-0.129638671875
1773251282429167900,6.81016796875,-0.1519927978515625,-0.9773101806640625,-0.1322021484375
1773251282439204900,6.820204833984375,-0.1505126953125,-0.976837158203125,-0.13702392578125
1773251282449240800,6.83024072265625,-0.1509246826171875,-0.976226806640625,-0.13702392578125
1773251282459276800,6.84027685546875,-0.150726318359375,-0.97601318359375,-0.135589599609375
1773251282469313000,6.85031298828125,-0.1532440185546875,-0.9766845703125,-0.1341400146484375
1773251282479349000,6.860348876953125,-0.154815673828125,-0.9781646728515625,-0.134124755859375
1773251282489385000,6.870385009765625,-0.1555938720703125,-0.976318359375,-0.1312103271484375
1773251282499421200,6.880421142578125,-0.1547393798828125,-0.9770660400390625,-0.1306610107421875
1773251282509457200,6.89045703125,-0.1542816162109375,-0.97821044921875,-0.134521484375
1773251282519493000,6.9004931640625,-0.1535797119140625,-0.97845458984375,-0.135986328125
1773251282529529000,6.910529052734375,-0.154266357421875,-0.978302001953125,-0.1382598876953125
1773251282539565000,6.92056494140625,-0.152374267578125,-0.9781646728515625,-0.1381072998046875
1773251282549601000,6.93060107421875,-0.1501617431640625,-0.9764251708984375,-0.1380462646484375
1773251282559638000,6.940637939453125,-0.1509552001953125,-0.978759765625,-0.1391143798828125
1773251282569674000,6.950674072265625,-0.150543212890625,-0.976959228515625,-0.139312744140625
1773251282579710000,6.9607099609375,-0.1502227783203125,-0.9774322509765625,-0.14007568359375
1773251282589746000,6.970745849609375,-0.153472900390625,-0.9754486083984375,-0.1388092041015625
1773251282599782000,6.980781982421875,-0.1540374755859375,-0.9766998291015625,-0.136322021484375
1773251282609817900,6.99081787109375,-0.1537628173828125,-0.9779510498046875,-0.134979248046875
1773251282619854000,7.00085400390625,-0.1531982421875,-0.97674560546875,-0.1336822509765625
1773251282629890000,7.01089013671875,-0.15289306640625,-0.9758148193359375,-0.1357421875
1773251282639926000,7.020926025390625,-0.150909423828125,-0.9760284423828125,-0.1389007568359375
1773251282649962000,7.0309619140625,-0.1491851806640625,-0.97344970703125,-0.137115478515625
1773251282659998000,7.040998046875,-0.147979736328125,-0.9740753173828125,-0.1344451904296875
1773251282670035200,7.05103515625,-0.1479644775390625,-0.973236083984375,-0.1324005126953125
1773251282680071200,7.0610712890625,-0.149993896484375,-0.970367431640625,-0.1297149658203125
1773251282690107100,7.071107177734375,-0.15289306640625,-0.9704742431640625,-0.12884521484375
1773251282700143000,7.08114306640625,-0.153778076171875,-0.9722900390625,-0.1290740966796875
1773251282710179000,7.091178955078125,-0.153717041015625,-0.972076416015625,-0.1305694580078125
1773251282720215000,7.101215087890625,-0.1525726318359375,-0.974273681640625,-0.1320343017578125
1773251282730251000,7.1112509765625,-0.1496734619140625,-0.974609375,-0.1331939697265625
1773251282740287000,7.121286865234375,-0.14776611328125,-0.97308349609375,-0.1312408447265625
1773251282750323000,7.131322998046875,-0.148468017578125,-0.9742584228515625,-0.128631591796875
1773251282760359200,7.141359130859375,-0.1459503173828125,-0.9734649658203125,-0.1302642822265625
1773251282770395100,7.15139501953125,-0.145294189453125,-0.9737701416015625,-0.1315155029296875
1773251282780432000,7.161431884765625,-0.145416259765625,-0.9743194580078125,-0.1286163330078125
1773251282790468000,7.171468017578125,-0.147857666015625,-0.9730377197265625,-0.1277313232421875
1773251282800504000,7.181504150390625,-0.15557861328125,-0.9706573486328125,-0.1303253173828125
1773251282810540000,7.1915400390625,-0.1585845947265625,-0.96966552734375,-0.1357574462890625
1773251282820576000,7.201575927734375,-0.160400390625,-0.9663238525390625,-0.1392822265625
1773251282830612000,7.211612060546875,-0.1560516357421875,-0.967041015625,-0.1381072998046875
1773251282840648000,7.22164794921875,-0.1451263427734375,-0.9709625244140625,-0.1360626220703125
1773251282850684000,7.231683837890625,-0.133270263671875,-0.9769439697265625,-0.1370849609375
1773251282860719900,7.241719970703125,-0.128570556640625,-0.9807281494140625,-0.13824462890625
1773251282870755800,7.251755859375,-0.128448486328125,-0.9826507568359375,-0.141510009765625
1773251282880791800,7.261791748046875,-0.140380859375,-0.9796600341796875,-0.14483642578125
1773251282890829000,7.2718291015625,-0.1540679931640625,-0.9763946533203125,-0.1459808349609375
1773251282900865000,7.281864990234375,-0.160125732421875,-0.9752960205078125,-0.1452178955078125
1773251282910901000,7.29190087890625,-0.1565399169921875,-0.9747161865234375,-0.141204833984375
1773251282920937000,7.30193701171875,-0.1509857177734375,-0.9728851318359375,-0.13885498046875
1773251282930973000,7.311972900390625,-0.1519775390625,-0.972320556640625,-0.1405792236328125
1773251282941009200,7.322009033203125,-0.14996337890625,-0.971343994140625,-0.1432342529296875
1773251282951045000,7.332045166015625,-0.145904541015625,-0.97210693359375,-0.144500732421875
1773251282961081000,7.3420810546875,-0.1389617919921875,-0.9756622314453125,-0.1469879150390625
1773251282971117000,7.352116943359375,-0.1334686279296875,-0.9774627685546875,-0.1489715576171875
1773251282981153000,7.362153076171875,-0.1353912353515625,-0.978240966796875,-0.1482086181640625
1773251282991189000,7.37218896484375,-0.1426239013671875,-0.97735595703125,-0.1466827392578125
1773251283001226000,7.38222607421875,-0.148590087890625,-0.9790496826171875,-0.1454315185546875
1773251283011262000,7.392261962890625,-0.1529693603515625,-0.9786529541015625,-0.144805908203125
1773251283021298000,7.4022978515625,-0.1536865234375,-0.9793701171875,-0.144317626953125
1773251283031334000,7.412333984375,-0.1531982421875,-0.977691650390625,-0.14312744140625
1773251283041369900,7.422369873046875,-0.1493072509765625,-0.9752197265625,-0.1435546875
1773251283051405800,7.43240576171875,-0.1450958251953125,-0.973785400390625,-0.1450958251953125
1773251283061441800,7.44244189453125,-0.139678955078125,-0.9730224609375,-0.145263671875
1773251283071478000,7.45247802734375,-0.1388397216796875,-0.9747161865234375,-0.1452484130859375
1773251283081514200,7.46251416015625,-0.13934326171875,-0.973541259765625,-0.1453857421875
1773251283091550200,7.47255029296875,-0.140838623046875,-0.972564697265625,-0.143035888671875
1773251283101586200,7.482586181640625,-0.1457672119140625,-0.9740447998046875,-0.140167236328125
1773251283111622100,7.4926220703125,-0.149322509765625,-0.97479248046875,-0.1389312744140625
1773251283121659100,7.5026591796875,-0.1511383056640625,-0.97509765625,-0.1396942138671875
1773251283131695000,7.512695068359375,-0.1493072509765625,-0.9726409912109375,-0.1411895751953125
1773251283141731000,7.52273095703125,-0.1464996337890625,-0.9736785888671875,-0.1412200927734375
1773251283151767000,7.53276708984375,-0.1409149169921875,-0.973846435546875,-0.1395263671875
1773251283161803000,7.542802978515625,-0.136260986328125,-0.97491455078125,-0.1396026611328125
1773251283171839000,7.5528388671875,-0.1356658935546875,-0.97686767578125,-0.1394500732421875
1773251283181875000,7.562875,-0.1353607177734375,-0.9782562255859375,-0.1424713134765625
1773251283191911200,7.5729111328125,-0.1370849609375,-0.981353759765625,-0.1432037353515625
1773251283201947100,7.582947021484375,-0.1385955810546875,-0.9835205078125,-0.14276123046875
1773251283211983000,7.592983154296875,-0.1424407958984375,-0.9826812744140625,-0.1398162841796875
1773251283222019000,7.60301904296875,-0.148193359375,-0.9812469482421875,-0.1381072998046875
1773251283232056000,7.61305615234375,-0.150665283203125,-0.9819793701171875,-0.135284423828125
1773251283242092000,7.623092041015625,-0.1542816162109375,-0.98175048828125,-0.1359710693359375
1773251283252128000,7.6331279296875,-0.15478515625,-0.97894287109375,-0.1385955810546875
1773251283262164200,7.643164306640625,-0.1523590087890625,-0.97869873046875,-0.1399993896484375
1773251283272200200,7.6532001953125,-0.149505615234375,-0.9783935546875,-0.140960693359375
1773251283282236200,7.663236083984375,-0.143218994140625,-0.98040771484375,-0.138427734375
1773251283292272400,7.6732724609375,-0.1377105712890625,-0.9817352294921875,-0.13525390625
1773251283302308400,7.683308349609375,-0.1349029541015625,-0.9792633056640625,-0.1344451904296875
1773251283312344300,7.69334423828125,-0.1361846923828125,-0.9799041748046875,-0.1341094970703125
1773251283322380300,7.70338037109375,-0.1386260986328125,-0.9803314208984375,-0.1366119384765625
1773251283332416300,7.713416259765625,-0.1412811279296875,-0.9794769287109375,-0.137664794921875
1773251283342453200,7.723453369140625,-0.1432647705078125,-0.9762115478515625,-0.1368560791015625
1773251283352489200,7.7334892578125,-0.1435546875,-0.9753570556640625,-0.1362152099609375
1773251283362525200,7.743525146484375,-0.1449432373046875,-0.975555419921875,-0.1365966796875
1773251283372561200,7.75356103515625,-0.148406982421875,-0.9761810302734375,-0.1360626220703125
1773251283382597000,7.76359716796875,-0.1495513916015625,-0.9769134521484375,-0.1346435546875
1773251283392633000,7.773633056640625,-0.147369384765625,-0.9768829345703125,-0.13336181640625
1773251283402669300,7.78366943359375,-0.1455078125,-0.9768524169921875,-0.1340484619140625
1773251283412705300,7.793705322265625,-0.1396942138671875,-0.97283935546875,-0.13507080078125
1773251283422741200,7.8037412109375,-0.137237548828125,-0.973724365234375,-0.13525390625
1773251283432777200,7.813777099609375,-0.136474609375,-0.9744720458984375,-0.1352081298828125
1773251283442814200,7.823814208984375,-0.1407318115234375,-0.9727325439453125,-0.135467529296875
1773251283452850200,7.83385009765625,-0.145233154296875,-0.9732513427734375,-0.134063720703125
1773251283462886400,7.843886474609375,-0.1489105224609375,-0.974700927734375,-0.134521484375
1773251283472922400,7.85392236328125,-0.1500701904296875,-0.9747161865234375,-0.1338958740234375
1773251283482958300,7.863958251953125,-0.150665283203125,-0.977935791015625,-0.136260986328125
1773251283492994300,7.873994384765625,-0.152252197265625,-0.978515625,-0.1343231201171875
1773251283503030300,7.8840302734375,-0.152862548828125,-0.97833251953125,-0.1340484619140625
1773251283513066200,7.894066162109375,-0.15240478515625,-0.9791412353515625,-0.132781982421875
1773251283523102200,7.904102294921875,-0.152435302734375,-0.9810638427734375,-0.1321563720703125
1773251283533138200,7.91413818359375,-0.151336669921875,-0.9820556640625,-0.134613037109375
1773251283543174100,7.924174072265625,-0.150482177734375,-0.979736328125,-0.1359100341796875
1773251283553211100,7.934211181640625,-0.148956298828125,-0.979461669921875,-0.1345977783203125
1773251283563247000,7.9442470703125,-0.1487274169921875,-0.9798583984375,-0.1322174072265625
1773251283573283000,7.954282958984375,-0.1478271484375,-0.9803619384765625,-0.132568359375
1773251283583319300,7.9643193359375,-0.14752197265625,-0.9801177978515625,-0.134063720703125
1773251283593355300,7.974355224609375,-0.1495361328125,-0.980224609375,-0.1337890625
1773251283603391200,7.98439111328125,-0.149505615234375,-0.980194091796875,-0.1325836181640625
1773251283613427200,7.99442724609375,-0.1521148681640625,-0.97772216796875,-0.1306915283203125
1773251283623463200,8.004463134765626,-0.1562347412109375,-0.9756317138671875,-0.12994384765625
1773251283633499100,8.0144990234375,-0.15765380859375,-0.97119140625,-0.12994384765625
1773251283643535000,8.02453515625,-0.1564178466796875,-0.968505859375,-0.13421630859375
1773251283653571000,8.034571044921876,-0.1513214111328125,-0.970001220703125,-0.133697509765625
1773251283663608300,8.0446083984375,-0.1452789306640625,-0.973663330078125,-0.13232421875
1773251283673644300,8.054644287109374,-0.14013671875,-0.9758148193359375,-0.131439208984375
1773251283683680300,8.06468017578125,-0.13916015625,-0.977447509765625,-0.13360595703125
1773251283693716200,8.07471630859375,-0.1393890380859375,-0.9762420654296875,-0.1358489990234375
1773251283703752200,8.084752197265624,-0.1448822021484375,-0.97491455078125,-0.13995361328125
1773251283713788200,8.0947880859375,-0.15032958984375,-0.97467041015625,-0.14141845703125
1773251283723824400,8.104824462890624,-0.14837646484375,-0.974945068359375,-0.1395416259765625
1773251283733860400,8.1148603515625,-0.1467742919921875,-0.97515869140625,-0.1356048583984375
1773251283743896300,8.124896240234374,-0.1490020751953125,-0.973876953125,-0.1299896240234375
1773251283753932300,8.134932373046874,-0.15692138671875,-0.9725799560546875,-0.130401611328125
1773251283763968300,8.14496826171875,-0.1635589599609375,-0.9713897705078125,-0.133575439453125
1773251283774005200,8.155005126953125,-0.1669921875,-0.9762420654296875,-0.1368255615234375
1773251283784041200,8.165041259765625,-0.165130615234375,-0.9779510498046875,-0.1395263671875
1773251283794077200,8.1750771484375,-0.1602325439453125,-0.97918701171875,-0.138397216796875
1773251283804113200,8.185113037109375,-0.1517486572265625,-0.9799957275390625,-0.1352081298828125
1773251283814149000,8.195149169921875,-0.1482086181640625,-0.9797821044921875,-0.1337890625
1773251283824185000,8.20518505859375,-0.1522369384765625,-0.97845458984375,-0.13275146484375
1773251283834221000,8.215220947265625,-0.158843994140625,-0.9776611328125,-0.1337738037109375
1773251283844257000,8.225257080078125,-0.1621551513671875,-0.9772796630859375,-0.1300048828125
1773251283854293000,8.23529296875,-0.1631011962890625,-0.977020263671875,-0.128082275390625
1773251283864329200,8.2453291015625,-0.165069580078125,-0.9765777587890625,-0.1280670166015625
1773251283874365400,8.255365478515625,-0.1615447998046875,-0.977508544921875,-0.127410888671875
1773251283884402200,8.265402099609375,-0.157318115234375,-0.9787445068359375,-0.124664306640625
1773251283894438100,8.275438232421875,-0.1530609130859375,-0.9804840087890625,-0.1223602294921875
1773251283904474400,8.285474365234375,-0.153167724609375,-0.9813232421875,-0.1229095458984375
1773251283914510300,8.29551025390625,-0.1556396484375,-0.9780731201171875,-0.124359130859375
1773251283924546300,8.30554638671875,-0.1589202880859375,-0.9789276123046875,-0.12371826171875
1773251283934582300,8.315582275390625,-0.16363525390625,-0.975494384765625,-0.1235809326171875
1773251283944618200,8.3256181640625,-0.1661224365234375,-0.9716796875,-0.12164306640625
1773251283954654200,8.335654296875,-0.1653900146484375,-0.9698333740234375,-0.123260498046875
1773251283964690200,8.345690185546875,-0.1587677001953125,-0.969482421875,-0.1239013671875
1773251283974726100,8.35572607421875,-0.1520538330078125,-0.9697418212890625,-0.124176025390625
1773251283984762000,8.36576220703125,-0.147064208984375,-0.9696044921875,-0.127685546875
1773251283994799000,8.375799072265625,-0.1425628662109375,-0.972137451171875,-0.12713623046875
1773251284004835000,8.3858349609375,-0.143890380859375,-0.9737548828125,-0.12530517578125
1773251284014871000,8.39587109375,-0.1470184326171875,-0.9729156494140625,-0.123138427734375
1773251284024907000,8.405906982421875,-0.154632568359375,-0.97540283203125,-0.12396240234375
1773251284034943000,8.41594287109375,-0.15826416015625,-0.97723388671875,-0.1260833740234375
1773251284044979500,8.4259794921875,-0.160308837890625,-0.9807281494140625,-0.1296234130859375
1773251284055015400,8.436015380859375,-0.1570892333984375,-0.9837799072265625,-0.1313323974609375
1773251284065051400,8.446051513671875,-0.1536865234375,-0.986114501953125,-0.13299560546875
1773251284075087400,8.45608740234375,-0.148162841796875,-0.9863128662109375,-0.1312713623046875
1773251284085123300,8.466123291015625,-0.1470489501953125,-0.98516845703125,-0.1302642822265625
1773251284095160300,8.476160400390626,-0.1420135498046875,-0.99749755859375,-0.129119873046875
1773251284105196300,8.4861962890625,-0.1231536865234375,-1.0098724365234375,-0.1286773681640625
1773251284115232300,8.496232177734376,-0.102630615234375,-1.005157470703125,-0.129730224609375
1773251284125268200,8.506268310546876,-0.1009979248046875,-0.993804931640625,-0.125732421875
1773251284135304200,8.51630419921875,-0.122833251953125,-0.984039306640625,-0.1235809326171875
1773251284145340200,8.526340087890626,-0.1570587158203125,-0.9656524658203125,-0.1240081787109375
1773251284155376000,8.536376220703126,-0.1946258544921875,-0.941009521484375,-0.12542724609375
1773251284165412000,8.546412109375,-0.221923828125,-0.9273223876953125,-0.1211395263671875
1773251284175448000,8.556447998046876,-0.2375640869140625,-0.928192138671875,-0.1195526123046875
1773251284185484300,8.566484375,-0.240966796875,-0.9348907470703125,-0.1230621337890625
1773251284195520000,8.57652001953125,-0.2339324951171875,-0.940948486328125,-0.12799072265625
1773251284205557000,8.586556884765624,-0.2197723388671875,-0.94696044921875,-0.1328582763671875
1773251284215593000,8.596593017578124,-0.2001800537109375,-0.954345703125,-0.137939453125
1773251284225629000,8.60662890625,-0.1846771240234375,-0.95977783203125,-0.1389312744140625
1773251284235665200,8.6166650390625,-0.1723480224609375,-0.9647979736328125,-0.139617919921875
1773251284245701000,8.626701171875,-0.1656494140625,-0.969329833984375,-0.1415863037109375
1773251284255737000,8.636737060546874,-0.168609619140625,-0.9687347412109375,-0.140655517578125
1773251284265773000,8.64677294921875,-0.1755523681640625,-0.967376708984375,-0.1385345458984375
1773251284275809000,8.65680908203125,-0.188232421875,-0.966766357421875,-0.132110595703125
1773251284285845000,8.666844970703124,-0.1992950439453125,-0.9670562744140625,-0.1304931640625
1773251284295881000,8.676880859375,-0.210601806640625,-0.964996337890625,-0.128448486328125
1773251284305918000,8.68691796875,-0.2194671630859375,-0.9637603759765625,-0.1314697265625
1773251284315954000,8.696953857421875,-0.225311279296875,-0.964080810546875,-0.135650634765625
1773251284325990000,8.706989990234375,-0.2268218994140625,-0.9651031494140625,-0.134674072265625
1773251284336025900,8.71702587890625,-0.225433349609375,-0.9668731689453125,-0.1309051513671875
1773251284346061800,8.727061767578125,-0.2223052978515625,-0.9701995849609375,-0.1272125244140625
1773251284356098000,8.73709814453125,-0.215179443359375,-0.9747314453125,-0.1273956298828125
1773251284366134000,8.747134033203125,-0.2086334228515625,-0.9787445068359375,-0.1302642822265625
1773251284376170000,8.757169921875,-0.198394775390625,-0.9831390380859375,-0.1351165771484375
1773251284386206000,8.7672060546875,-0.190399169921875,-0.987457275390625,-0.13525390625
1773251284396242000,8.777241943359375,-0.187225341796875,-0.9856109619140625,-0.1313018798828125
1773251284406278000,8.78727783203125,-0.1915740966796875,-0.983123779296875,-0.130615234375
1773251284416315100,8.797315185546875,-0.197845458984375,-0.979278564453125,-0.128631591796875
1773251284426351000,8.80735107421875,-0.20367431640625,-0.9755706787109375,-0.1289215087890625
1773251284436387000,8.817386962890625,-0.2057952880859375,-0.971954345703125,-0.131317138671875
1773251284446423000,8.827423095703125,-0.203033447265625,-0.9700775146484375,-0.1319122314453125
1773251284456459000,8.837458984375,-0.1983795166015625,-0.9683837890625,-0.130401611328125
1773251284466495000,8.847494873046875,-0.1949462890625,-0.967376708984375,-0.131317138671875
1773251284476531000,8.857531005859375,-0.1947174072265625,-0.9683380126953125,-0.1321258544921875
1773251284486567000,8.86756689453125,-0.1944427490234375,-0.9695281982421875,-0.133209228515625
1773251284496603100,8.87760302734375,-0.1942596435546875,-0.9681243896484375,-0.136260986328125
1773251284506639000,8.88763916015625,-0.196441650390625,-0.9678802490234375,-0.136138916015625
1773251284516675800,8.89767578125,-0.194061279296875,-0.96710205078125,-0.130645751953125
1773251284526712000,8.907712158203125,-0.1933746337890625,-0.965667724609375,-0.1269683837890625
1773251284536748000,8.917748046875,-0.194183349609375,-0.9687652587890625,-0.12335205078125
1773251284546784000,8.927783935546875,-0.198638916015625,-0.969573974609375,-0.123199462890625
1773251284556820000,8.937820068359375,-0.2039031982421875,-0.9702911376953125,-0.1242218017578125
1773251284566856000,8.94785595703125,-0.205596923828125,-0.9728851318359375,-0.126617431640625
1773251284576892000,8.957891845703125,-0.205413818359375,-0.973175048828125,-0.1300811767578125
1773251284586927900,8.967927978515625,-0.2040863037109375,-0.9750213623046875,-0.13238525390625
1773251284596963800,8.9779638671875,-0.202911376953125,-0.9752655029296875,-0.1327056884765625
1773251284606999800,8.987999755859375,-0.201141357421875,-0.977020263671875,-0.1291961669921875
1773251284617035800,8.998035888671875,-0.1986236572265625,-0.977386474609375,-0.12738037109375
1773251284627073000,9.008072998046876,-0.1969451904296875,-0.978118896484375,-0.126129150390625
1773251284637109000,9.01810888671875,-0.1959228515625,-0.9770050048828125,-0.1250152587890625
1773251284647145000,9.02814501953125,-0.1944732666015625,-0.9766845703125,-0.124725341796875
1773251284657181000,9.038180908203126,-0.1917572021484375,-0.976104736328125,-0.1258544921875
1773251284667217000,9.048216796875,-0.1913299560546875,-0.9739990234375,-0.126068115234375
1773251284677253000,9.058253173828126,-0.1912841796875,-0.97381591796875,-0.12420654296875
1773251284687289000,9.0682890625,-0.1906890869140625,-0.9742889404296875,-0.12384033203125
1773251284697325000,9.078324951171876,-0.1898956298828125,-0.97381591796875,-0.1232757568359375
1773251284707361000,9.088361083984376,-0.1904449462890625,-0.9725189208984375,-0.1224365234375
1773251284717397000,9.09839697265625,-0.19207763671875,-0.9722900390625,-0.1203765869140625
1773251284727433000,9.108432861328126,-0.1915740966796875,-0.970489501953125,-0.1239776611328125
1773251284737470000,9.118469970703124,-0.1894073486328125,-0.9696197509765625,-0.1250457763671875
1773251284747506000,9.128505859375,-0.18890380859375,-0.970306396484375,-0.1237640380859375
1773251284757542000,9.1385419921875,-0.1881866455078125,-0.9695281982421875,-0.12091064453125
1773251284767577900,9.148577880859374,-0.18560791015625,-0.968841552734375,-0.1216278076171875
1773251284777613800,9.15861376953125,-0.184539794921875,-0.9686279296875,-0.124969482421875
1773251284787649800,9.16864990234375,-0.1814422607421875,-0.9668731689453125,-0.1276092529296875
1773251284797685800,9.178685791015624,-0.178497314453125,-0.9656219482421875,-0.1262969970703125
1773251284807721700,9.1887216796875,-0.1747894287109375,-0.964996337890625,-0.124969482421875
1773251284817758200,9.19875830078125,-0.175048828125,-0.96624755859375,-0.124481201171875
1773251284827794200,9.208794189453124,-0.1769256591796875,-0.967926025390625,-0.1245880126953125
1773251284837830100,9.218830078125,-0.1800079345703125,-0.969024658203125,-0.123748779296875
1773251284847867100,9.2288671875,-0.1851348876953125,-0.970428466796875,-0.12030029296875
1773251284857903000,9.238903076171875,-0.1888580322265625,-0.971282958984375,-0.117279052734375
1773251284867939000,9.24893896484375,-0.1938323974609375,-0.9753265380859375,-0.1156768798828125
1773251284877975000,9.25897509765625,-0.194091796875,-0.9741973876953125,-0.117401123046875
1773251284888011000,9.269010986328125,-0.1905670166015625,-0.972625732421875,-0.1209259033203125
1773251284898047000,9.279046875,-0.1867218017578125,-0.974517822265625,-0.127899169921875
1773251284908083000,9.2890830078125,-0.18060302734375,-0.9741363525390625,-0.1269378662109375
1773251284918119000,9.299118896484375,-0.1787109375,-0.9740753173828125,-0.12652587890625
1773251284928155000,9.30915478515625,-0.1800994873046875,-0.9747314453125,-0.12359619140625
1773251284938190800,9.31919091796875,-0.182403564453125,-0.973297119140625,-0.1207275390625
1773251284948227800,9.329227783203125,-0.1884765625,-0.9733123779296875,-0.1228790283203125
1773251284958263800,9.339263916015625,-0.1942901611328125,-0.97308349609375,-0.127777099609375
1773251284968299800,9.3492998046875,-0.1944580078125,-0.9722900390625,-0.12652587890625
1773251284978335700,9.359335693359375,-0.192779541015625,-0.9743194580078125,-0.127655029296875
1773251284988372000,9.3693720703125,-0.188568115234375,-0.9713897705078125,-0.1274871826171875
1773251284998408200,9.379408203125,-0.1846466064453125,-0.971405029296875,-0.125732421875
1773251285008444200,9.389444091796875,-0.1822967529296875,-0.9702301025390625,-0.1273040771484375
1773251285018480000,9.399480224609375,-0.180572509765625,-0.9684600830078125,-0.1313323974609375
1773251285028516000,9.40951611328125,-0.1800079345703125,-0.9666748046875,-0.1347503662109375
1773251285038552000,9.419552001953125,-0.1811065673828125,-0.96697998046875,-0.135894775390625
1773251285048589000,9.429589111328125,-0.184295654296875,-0.965728759765625,-0.136077880859375
1773251285058625000,9.439625,-0.184539794921875,-0.9669189453125,-0.1355438232421875
1773251285068661000,9.449660888671875,-0.1859588623046875,-0.96612548828125,-0.1335296630859375
1773251285078697000,9.459697021484375,-0.1873626708984375,-0.9659271240234375,-0.1326751708984375
1773251285088733000,9.46973291015625,-0.187774658203125,-0.9671630859375,-0.1304168701171875
1773251285098769000,9.479768798828125,-0.1892547607421875,-0.9694671630859375,-0.131439208984375
1773251285108804900,9.489804931640625,-0.1873779296875,-0.97015380859375,-0.130401611328125
1773251285118840800,9.4998408203125,-0.184112548828125,-0.970306396484375,-0.130340576171875
1773251285128876800,9.509876708984375,-0.185089111328125,-0.971099853515625,-0.1331634521484375
1773251285138913000,9.5199130859375,-0.184326171875,-0.9713134765625,-0.1364898681640625
1773251285148949800,9.52994970703125,-0.183563232421875,-0.9708404541015625,-0.133148193359375
1773251285158985700,9.53998583984375,-0.1818389892578125,-0.9730377197265625,-0.1313323974609375
1773251285169022200,9.550022216796876,-0.1766815185546875,-0.9735260009765625,-0.1300048828125
1773251285179058200,9.56005810546875,-0.17388916015625,-0.9735565185546875,-0.1331634521484375
1773251285189094700,9.5700947265625,-0.1689605712890625,-0.9749908447265625,-0.1336669921875
1773251285199131000,9.580130859375,-0.169647216796875,-0.9746551513671875,-0.132232666015625
1773251285209166800,9.590166748046874,-0.1746978759765625,-0.9727783203125,-0.132965087890625
1773251285219202800,9.600202880859374,-0.18115234375,-0.9721832275390625,-0.1307525634765625
1773251285229238800,9.61023876953125,-0.182891845703125,-0.973541259765625,-0.1295318603515625
1773251285239274800,9.620274658203124,-0.1847686767578125,-0.9725341796875,-0.127410888671875
1773251285249312000,9.63031201171875,-0.1876678466796875,-0.9685516357421875,-0.1280517578125
1773251285259348000,9.640347900390625,-0.1911773681640625,-0.9687652587890625,-0.1294403076171875
1773251285269384000,9.650384033203125,-0.192962646484375,-0.96868896484375,-0.1312255859375
1773251285279420000,9.660419921875,-0.1929931640625,-0.9698944091796875,-0.132537841796875
1773251285289455900,9.670455810546875,-0.1852264404296875,-0.97174072265625,-0.1315765380859375
1773251285299491800,9.680491943359375,-0.17852783203125,-0.9713897705078125,-0.1304931640625
1773251285309527800,9.69052783203125,-0.1748504638671875,-0.97210693359375,-0.129364013671875
1773251285319563800,9.700563720703125,-0.1778564453125,-0.9705810546875,-0.126800537109375
1773251285329599700,9.710599853515625,-0.18243408203125,-0.9697113037109375,-0.126617431640625
1773251285339636000,9.720635986328125,-0.188629150390625,-0.9702301025390625,-0.12860107421875
1773251285349672700,9.730672607421875,-0.1930084228515625,-0.96893310546875,-0.1310577392578125
1773251285359708700,9.740708740234375,-0.19390869140625,-0.9688873291015625,-0.13189697265625
1773251285369745000,9.750744873046875,-0.1909332275390625,-0.9697265625,-0.1334991455078125
1773251285379780900,9.76078076171875,-0.184967041015625,-0.971435546875,-0.1312408447265625
1773251285389816800,9.77081689453125,-0.1788330078125,-0.9743499755859375,-0.133819580078125
1773251285399852800,9.780852783203125,-0.1748809814453125,-0.9751434326171875,-0.134979248046875
1773251285409888800,9.790888671875,-0.1753387451171875,-0.9763031005859375,-0.1364898681640625
1773251285419924700,9.8009248046875,-0.18280029296875,-0.9775543212890625,-0.133270263671875
1773251285429960700,9.810960693359375,-0.1924285888671875,-0.97698974609375,-0.1267852783203125
1773251285439997000,9.820996826171875,-0.197418212890625,-0.9742889404296875,-0.12396240234375
1773251285450034000,9.831033935546875,-0.19879150390625,-0.9730072021484375,-0.1250457763671875
1773251285460070000,9.84106982421875,-0.19635009765625,-0.9729766845703125,-0.1323699951171875
1773251285470105900,9.85110595703125,-0.1901092529296875,-0.972503662109375,-0.13446044921875
1773251285480141800,9.861141845703125,-0.1824951171875,-0.97027587890625,-0.135833740234375
1773251285490177800,9.871177734375,-0.1772308349609375,-0.96954345703125,-0.1335601806640625
1773251285500213800,9.8812138671875,-0.179046630859375,-0.9685211181640625,-0.1324005126953125
1773251285510249700,9.891249755859375,-0.1796417236328125,-0.966552734375,-0.1302947998046875
1773251285520286000,9.901285888671875,-0.1810760498046875,-0.9656524658203125,-0.1295318603515625
1773251285530322000,9.911322021484375,-0.1832733154296875,-0.966766357421875,-0.12969970703125
1773251285540358000,9.92135791015625,-0.18597412109375,-0.965484619140625,-0.1317291259765625
1773251285550395000,9.931394775390626,-0.1851806640625,-0.9652252197265625,-0.1333160400390625
1773251285560430800,9.941430908203126,-0.183563232421875,-0.967071533203125,-0.1357421875
1773251285570466800,9.951466796875,-0.1808929443359375,-0.969329833984375,-0.1372833251953125
1773251285580502800,9.961502685546876,-0.179779052734375,-0.97235107421875,-0.138275146484375
1773251285590538800,9.971538818359376,-0.177581787109375,-0.9763336181640625,-0.1337127685546875
1773251285600574700,9.98157470703125,-0.1764373779296875,-0.980072021484375,-0.1316986083984375
1773251285610610700,9.991610595703126,-0.17578125,-0.9824981689453125,-0.1309814453125
1773251285620647000,10.00164697265625,-0.1770477294921875,-0.98309326171875,-0.128509521484375
1773251285630683000,10.011682861328126,-0.179595947265625,-0.979400634765625,-0.13189697265625
1773251285640718800,10.02171875,-0.1798248291015625,-0.9780731201171875,-0.1356201171875
1773251285650755800,10.031755859375,-0.1828765869140625,-0.975799560546875,-0.1362762451171875
1773251285660791800,10.041791748046874,-0.181915283203125,-0.97381591796875,-0.130615234375
1773251285670827800,10.051827880859374,-0.180694580078125,-0.9718780517578125,-0.1271514892578125
1773251285680863700,10.06186376953125,-0.178070068359375,-0.971923828125,-0.1277923583984375
1773251285690900000,10.07189990234375,-0.17413330078125,-0.9716033935546875,-0.129486083984375
1773251285700936000,10.08193603515625,-0.16986083984375,-0.9709625244140625,-0.130615234375
1773251285710972000,10.091971923828124,-0.169219970703125,-0.9708709716796875,-0.1334075927734375
1773251285721007900,10.1020078125,-0.1687774658203125,-0.9710845947265625,-0.13226318359375
1773251285731043800,10.1120439453125,-0.17138671875,-0.969146728515625,-0.13323974609375
1773251285741080800,10.122080810546874,-0.170562744140625,-0.9662628173828125,-0.130706787109375
1773251285751116800,10.13211669921875,-0.17071533203125,-0.9675140380859375,-0.1302337646484375
1773251285761152800,10.14215283203125,-0.1709442138671875,-0.9672088623046875,-0.1315765380859375
1773251285771188700,10.152188720703125,-0.1693267822265625,-0.9656524658203125,-0.132904052734375
1773251285781224700,10.162224609375,-0.16693115234375,-0.9696197509765625,-0.133544921875
1773251285791261000,10.172260986328125,-0.166595458984375,-0.9718170166015625,-0.13165283203125
1773251285801297000,10.182296875,-0.166259765625,-0.972869873046875,-0.1293182373046875
1773251285811332900,10.192332763671875,-0.1696319580078125,-0.9718170166015625,-0.1288299560546875
1773251285821368800,10.202368896484375,-0.1710968017578125,-0.972503662109375,-0.132843017578125
1773251285831404800,10.21240478515625,-0.1759796142578125,-0.9730682373046875,-0.137420654296875
1773251285841441800,10.22244189453125,-0.1785430908203125,-0.972442626953125,-0.1442108154296875
1773251285851477800,10.232477783203125,-0.1788330078125,-0.972381591796875,-0.1491546630859375
1773251285861513700,10.242513671875,-0.176788330078125,-0.971099853515625,-0.1507720947265625
1773251285871550000,10.252550048828125,-0.1734466552734375,-0.9695892333984375,-0.1470794677734375
1773251285881586000,10.2625859375,-0.1749420166015625,-0.9691925048828125,-0.1475982666015625
1773251285891622000,10.272621826171875,-0.17864990234375,-0.9706268310546875,-0.1451873779296875
1773251285901657900,10.282657958984375,-0.1800994873046875,-0.971954345703125,-0.142578125
1773251285911693800,10.29269384765625,-0.18109130859375,-0.9730987548828125,-0.1437225341796875
1773251285921729800,10.302729736328125,-0.179168701171875,-0.9752655029296875,-0.1439056396484375
1773251285931765800,10.312765869140625,-0.1726837158203125,-0.9774017333984375,-0.1442413330078125
1773251285941802800,10.322802734375,-0.167999267578125,-0.9795379638671875,-0.145050048828125
1773251285951838700,10.332838623046875,-0.166839599609375,-0.9803619384765625,-0.146484375
1773251285961874700,10.342874755859375,-0.16876220703125,-0.9791107177734375,-0.1426239013671875
1773251285971911000,10.352910888671875,-0.1698760986328125,-0.9780731201171875,-0.13800048828125
1773251285981947000,10.36294677734375,-0.1716156005859375,-0.978668212890625,-0.1361541748046875
1773251285991982800,10.37298291015625,-0.1713104248046875,-0.978973388671875,-0.131988525390625
1773251286002018800,10.383018798828125,-0.1721343994140625,-0.9769439697265625,-0.1290130615234375
1773251286012055000,10.393054931640625,-0.177215576171875,-0.9764556884765625,-0.1250152587890625
1773251286022091000,10.403091064453125,-0.1825714111328125,-0.9767913818359375,-0.12738037109375
1773251286032127700,10.413127685546876,-0.1837921142578125,-0.974945068359375,-0.1305084228515625
1773251286042164000,10.4231640625,-0.1791229248046875,-0.9764556884765625,-0.1362762451171875
1773251286052200000,10.433199951171876,-0.1718597412109375,-0.97747802734375,-0.1403961181640625
1773251286062236000,10.44323583984375,-0.1678009033203125,-0.97711181640625,-0.1368865966796875
1773251286072272000,10.45327197265625,-0.1655426025390625,-0.978515625,-0.133056640625
1773251286082307800,10.463307861328126,-0.1657867431640625,-0.9793243408203125,-0.131103515625
1773251286092343800,10.47334375,-0.1688232421875,-0.9782257080078125,-0.1290130615234375
1773251286102379800,10.4833798828125,-0.1717987060546875,-0.9767303466796875,-0.1322479248046875
1773251286112415700,10.493415771484376,-0.1730499267578125,-0.9737396240234375,-0.1363372802734375
1773251286122451700,10.50345166015625,-0.17376708984375,-0.9719085693359375,-0.1378173828125
1773251286132488700,10.51348876953125,-0.1724853515625,-0.96929931640625,-0.1439208984375
1773251286142525000,10.52352490234375,-0.169708251953125,-0.9689788818359375,-0.145416259765625
1773251286152561000,10.533560791015624,-0.1619415283203125,-0.966766357421875,-0.1410675048828125
1773251286162596900,10.543596923828124,-0.1561279296875,-0.96478271484375,-0.144805908203125
1773251286172632800,10.5536328125,-0.1544952392578125,-0.9644775390625,-0.144622802734375
1773251286182668800,10.563668701171874,-0.1553497314453125,-0.9654998779296875,-0.1416015625
1773251286192704500,10.57370458984375,-0.16094970703125,-0.9669189453125,-0.1408843994140625
1773251286202740500,10.583740478515624,-0.1639404296875,-0.9696807861328125,-0.1391448974609375
1773251286212776400,10.5937763671875,-0.166839599609375,-0.9701080322265625,-0.140838623046875
1773251286222813400,10.6038134765625,-0.1671600341796875,-0.9726409912109375,-0.1434478759765625
1773251286232849400,10.613849365234374,-0.16259765625,-0.972900390625,-0.1460723876953125
1773251286242885400,10.623885498046874,-0.159515380859375,-0.969818115234375,-0.1496734619140625
1773251286252921300,10.63392138671875,-0.1576690673828125,-0.97064208984375,-0.1508941650390625
1773251286262957300,10.643957275390624,-0.1576995849609375,-0.9702606201171875,-0.1495208740234375
1773251286272993300,10.6539931640625,-0.16033935546875,-0.9709930419921875,-0.146240234375
1773251286283029200,10.664029296875,-0.164581298828125,-0.9734649658203125,-0.1458282470703125
1773251286293065200,10.674065185546874,-0.170806884765625,-0.975982666015625,-0.14373779296875
1773251286303101200,10.68410107421875,-0.1747283935546875,-0.9766387939453125,-0.1407470703125
1773251286313137400,10.694137451171875,-0.1748504638671875,-0.9741668701171875,-0.1424407958984375
1773251286323174100,10.704174072265625,-0.1745147705078125,-0.9727630615234375,-0.144744873046875
1773251286333210000,10.714210205078125,-0.1715850830078125,-0.9724884033203125,-0.1479644775390625
1773251286343246300,10.724246337890625,-0.1688690185546875,-0.97357177734375,-0.1488494873046875
1773251286353282600,10.734282470703125,-0.164947509765625,-0.9738922119140625,-0.1487274169921875
1773251286363318500,10.744318603515625,-0.162872314453125,-0.9753265380859375,-0.14569091796875
1773251286373354500,10.7543544921875,-0.161895751953125,-0.9768524169921875,-0.143890380859375
1773251286383390500,10.764390380859375,-0.1634979248046875,-0.974761962890625,-0.1450347900390625
1773251286393426400,10.774426513671875,-0.1663055419921875,-0.974334716796875,-0.14569091796875
1773251286403462400,10.78446240234375,-0.167510986328125,-0.9710845947265625,-0.1449737548828125
1773251286413499400,10.79449951171875,-0.1705322265625,-0.9728851318359375,-0.144622802734375
1773251286423535400,10.804535400390625,-0.17010498046875,-0.9734954833984375,-0.1448516845703125
1773251286433571300,10.8145712890625,-0.1694183349609375,-0.974639892578125,-0.143524169921875
1773251286443607300,10.824607177734375,-0.1670989990234375,-0.9753875732421875,-0.1416473388671875
1773251286453643300,10.834643310546875,-0.16473388671875,-0.975128173828125,-0.1417999267578125
1773251286463679200,10.84467919921875,-0.1622161865234375,-0.9747772216796875,-0.1414947509765625
1773251286473715200,10.854715087890625,-0.1613616943359375,-0.976470947265625,-0.1434478759765625
1773251286483751400,10.86475146484375,-0.160308837890625,-0.974365234375,-0.1434478759765625
1773251286493787400,10.874787353515625,-0.1613311767578125,-0.971099853515625,-0.1393280029296875
1773251286503823400,10.8848232421875,-0.160125732421875,-0.971649169921875,-0.1375885009765625
1773251286513860400,10.8948603515625,-0.1610565185546875,-0.9717559814453125,-0.1379241943359375
1773251286523896600,10.904896484375,-0.1601409912109375,-0.9740447998046875,-0.1402130126953125
1773251286533932500,10.9149326171875,-0.1598663330078125,-0.9737396240234375,-0.1409454345703125
1773251286543968500,10.924968505859376,-0.1584320068359375,-0.97625732421875,-0.1447906494140625
1773251286554004500,10.93500439453125,-0.158050537109375,-0.9752044677734375,-0.145050048828125
1773251286564040400,10.94504052734375,-0.156280517578125,-0.9763336181640625,-0.14208984375
1773251286574076400,10.955076416015626,-0.153045654296875,-0.97503662109375,-0.1406402587890625
1773251286584112400,10.9651123046875,-0.15264892578125,-0.9746246337890625,-0.1378631591796875
1773251286594148400,10.9751484375,-0.1553192138671875,-0.9762115478515625,-0.136871337890625
1773251286604185300,10.985185302734376,-0.15679931640625,-0.97412109375,-0.135589599609375
1773251286614221300,10.99522119140625,-0.1559600830078125,-0.9730377197265625,-0.137664794921875
1773251286624257300,11.00525732421875,-0.15625,-0.9737548828125,-0.13543701171875
1773251286634293200,11.015293212890626,-0.1552886962890625,-0.9723968505859375,-0.13653564453125
1773251286644329200,11.0253291015625,-0.1550445556640625,-0.9727020263671875,-0.137115478515625
1773251286654365200,11.035365234375,-0.15643310546875,-0.9736175537109375,-0.1357574462890625
1773251286664401400,11.0454013671875,-0.154998779296875,-0.9737396240234375,-0.135040283203125
1773251286674437400,11.055437255859376,-0.1567535400390625,-0.9736785888671875,-0.13543701171875
1773251286684473300,11.065473388671874,-0.155303955078125,-0.9739837646484375,-0.136932373046875
1773251286694510300,11.07551025390625,-0.15283203125,-0.9708251953125,-0.1357269287109375
1773251286704546600,11.085546630859374,-0.1500396728515625,-0.971221923828125,-0.1368255615234375
1773251286714582500,11.09558251953125,-0.147308349609375,-0.970489501953125,-0.136077880859375
1773251286724618500,11.105618408203124,-0.1468353271484375,-0.9724578857421875,-0.1339111328125
1773251286734654500,11.115654541015624,-0.1479949951171875,-0.97259521484375,-0.13446044921875
1773251286744690400,11.1256904296875,-0.1498870849609375,-0.9740142822265625,-0.1360931396484375
1773251286754726400,11.135726318359374,-0.153900146484375,-0.977081298828125,-0.1333160400390625
1773251286764762400,11.145762451171874,-0.1584320068359375,-0.9813079833984375,-0.1295928955078125
1773251286774798300,11.15579833984375,-0.1601715087890625,-0.98089599609375,-0.1270294189453125
1773251286784834300,11.165834228515624,-0.167633056640625,-0.976226806640625,-0.12554931640625
1773251286794871300,11.175871337890625,-0.1698150634765625,-0.973419189453125,-0.12957763671875
1773251286804907300,11.1859072265625,-0.16876220703125,-0.9699859619140625,-0.1363677978515625
1773251286814943200,11.195943115234375,-0.1614990234375,-0.9711761474609375,-0.138031005859375
1773251286824979200,11.205979248046875,-0.147857666015625,-0.9745330810546875,-0.1353912353515625
1773251286835015400,11.216015380859375,-0.1381378173828125,-0.977935791015625,-0.1305999755859375
1773251286845051400,11.226051513671875,-0.1365203857421875,-0.97967529296875,-0.127044677734375
1773251286855087400,11.23608740234375,-0.1409454345703125,-0.9798583984375,-0.1312713623046875
1773251286865123300,11.246123291015625,-0.15411376953125,-0.9766998291015625,-0.1368560791015625
1773251286875159300,11.2561591796875,-0.166717529296875,-0.9749298095703125,-0.1393280029296875
1773251286885196500,11.266196533203125,-0.1680908203125,-0.97491455078125,-0.1365203857421875
1773251286895232500,11.276232421875,-0.1645355224609375,-0.971923828125,-0.1306304931640625
1773251286905268500,11.2862685546875,-0.1621856689453125,-0.9689178466796875,-0.1253509521484375
1773251286915304400,11.296304443359375,-0.164642333984375,-0.9685516357421875,-0.1264801025390625
1773251286925340400,11.30634033203125,-0.1658172607421875,-0.9706573486328125,-0.127410888671875
1773251286935376400,11.31637646484375,-0.1602325439453125,-0.973785400390625,-0.1327056884765625
1773251286945412400,11.326412353515625,-0.1522216796875,-0.9741668701171875,-0.135528564453125
1773251286955448300,11.3364482421875,-0.1482391357421875,-0.976348876953125,-0.1390228271484375
1773251286965484300,11.346484375,-0.1475677490234375,-0.97589111328125,-0.1385955810546875
1773251286975521300,11.356521240234375,-0.1529693603515625,-0.973846435546875,-0.1361236572265625
1773251286985557200,11.36655712890625,-0.1633453369140625,-0.9734344482421875,-0.135284423828125
1773251286995593200,11.37659326171875,-0.1693878173828125,-0.973419189453125,-0.1313934326171875
1773251287005629200,11.386629150390625,-0.1713714599609375,-0.9727783203125,-0.131439208984375
1773251287015665400,11.39666552734375,-0.1671142578125,-0.968902587890625,-0.1334991455078125
1773251287025701400,11.406701416015625,-0.163482666015625,-0.9679718017578125,-0.1343231201171875
1773251287035737300,11.4167373046875,-0.15679931640625,-0.9685821533203125,-0.131591796875
1773251287045773300,11.426773193359375,-0.1490936279296875,-0.97125244140625,-0.131683349609375
1773251287055809300,11.436809326171876,-0.1459197998046875,-0.9726409912109375,-0.1338043212890625
1773251287065846500,11.446846435546876,-0.147186279296875,-0.970947265625,-0.135894775390625
1773251287075882500,11.456882568359376,-0.151580810546875,-0.9734649658203125,-0.1350555419921875
1773251287085918500,11.46691845703125,-0.15679931640625,-0.9744873046875,-0.131866455078125
1773251287095954400,11.476954345703126,-0.1653594970703125,-0.9733123779296875,-0.130096435546875
1773251287105990400,11.486990478515626,-0.169219970703125,-0.9747467041015625,-0.12933349609375
1773251287116026400,11.4970263671875,-0.1680450439453125,-0.9753570556640625,-0.1312255859375
1773251287126062300,11.507062255859376,-0.164642333984375,-0.9764251708984375,-0.133026123046875
1773251287136098300,11.517098388671876,-0.157989501953125,-0.9762725830078125,-0.1332550048828125
1773251287146134300,11.52713427734375,-0.1545257568359375,-0.974609375,-0.1357269287109375
1773251287156171300,11.537171142578124,-0.1505279541015625,-0.9753570556640625,-0.134368896484375
1773251287166207200,11.547207275390624,-0.1529083251953125,-0.9780120849609375,-0.135498046875
1773251287176243200,11.5572431640625,-0.155914306640625,-0.9786529541015625,-0.13458251953125
1773251287186279400,11.567279541015624,-0.1607666015625,-0.9812469482421875,-0.1301422119140625
1773251287196316000,11.57731591796875,-0.1668701171875,-0.9812469482421875,-0.129150390625
1773251287206352000,11.587351806640624,-0.1665496826171875,-0.98046875,-0.1295013427734375
1773251287216388000,11.59738818359375,-0.1633148193359375,-0.9817047119140625,-0.129791259765625
1773251287226424000,11.607424072265625,-0.159332275390625,-0.9798583984375,-0.1322479248046875
1773251287236460300,11.617460205078125,-0.1562957763671875,-0.9802398681640625,-0.133331298828125
1773251287246496300,11.627496337890625,-0.1547393798828125,-0.9785003662109375,-0.132354736328125
1773251287256533200,11.637533203125,-0.1529388427734375,-0.9792633056640625,-0.1314849853515625
1773251287266569200,11.6475693359375,-0.15374755859375,-0.9798126220703125,-0.1294403076171875
1773251287276605200,11.657605224609375,-0.1562652587890625,-0.9788970947265625,-0.1285858154296875
1773251287286641200,11.66764111328125,-0.1586761474609375,-0.9757537841796875,-0.1284332275390625
1773251287296677000,11.677677001953125,-0.1618499755859375,-0.975677490234375,-0.128387451171875
1773251287306713000,11.687713134765625,-0.16094970703125,-0.97320556640625,-0.133148193359375
1773251287316749000,11.6977490234375,-0.161590576171875,-0.972137451171875,-0.1355133056640625
1773251287326785000,11.707784912109375,-0.1610107421875,-0.971923828125,-0.135833740234375
1773251287336821000,11.717821044921875,-0.1612091064453125,-0.97314453125,-0.1341552734375
1773251287346858000,11.72785791015625,-0.159576416015625,-0.973419189453125,-0.1313629150390625
1773251287356894000,11.73789404296875,-0.1588287353515625,-0.9729461669921875,-0.12847900390625
1773251287366930000,11.747929931640625,-0.15625,-0.974090576171875,-0.1302032470703125
1773251287376966000,11.7579658203125,-0.1549835205078125,-0.9724273681640625,-0.13543701171875
1773251287387002000,11.768002197265625,-0.155120849609375,-0.9730377197265625,-0.137542724609375
1773251287397038000,11.7780380859375,-0.1560516357421875,-0.9744110107421875,-0.1372528076171875
1773251287407074000,11.788073974609375,-0.1587677001953125,-0.9744873046875,-0.1348724365234375
1773251287417110300,11.7981103515625,-0.159088134765625,-0.975616455078125,-0.133758544921875
1773251287427146200,11.808146240234375,-0.15985107421875,-0.9762420654296875,-0.133026123046875
1773251287437183200,11.818183349609376,-0.1614990234375,-0.9760589599609375,-0.135711669921875
1773251287447219200,11.82821923828125,-0.162353515625,-0.975921630859375,-0.137725830078125
1773251287457255200,11.838255126953126,-0.1617889404296875,-0.9761810302734375,-0.1392822265625
1773251287467291100,11.848291015625,-0.162750244140625,-0.9752044677734375,-0.1400299072265625
1773251287477327000,11.8583271484375,-0.1623992919921875,-0.9773101806640625,-0.1384735107421875
1773251287487363000,11.868363037109376,-0.163055419921875,-0.976043701171875,-0.13604736328125
1773251287497399000,11.87839892578125,-0.164520263671875,-0.9741058349609375,-0.1373138427734375
1773251287507435000,11.88843505859375,-0.1646270751953125,-0.974609375,-0.1392364501953125
1773251287517471000,11.898470947265626,-0.165863037109375,-0.9736480712890625,-0.13916015625
1773251287527508000,11.908508056640626,-0.1668701171875,-0.97320556640625,-0.138763427734375
1773251287537544000,11.9185439453125,-0.1659698486328125,-0.9720001220703125,-0.1350860595703125
1773251287547580000,11.928579833984376,-0.16552734375,-0.9706268310546875,-0.1328582763671875
1773251287557615900,11.938615966796876,-0.159576416015625,-0.97076416015625,-0.1325836181640625
1773251287567652000,11.948652099609374,-0.158111572265625,-0.97393798828125,-0.1354827880859375
1773251287577688000,11.95868798828125,-0.157989501953125,-0.9731597900390625,-0.1373138427734375
1773251287587724300,11.968724365234374,-0.159423828125,-0.9737701416015625,-0.1377716064453125
1773251287597760300,11.97876025390625,-0.160614013671875,-0.974456787109375,-0.1322174072265625
1773251287607796200,11.988796142578124,-0.1652679443359375,-0.9741668701171875,-0.1324310302734375
1773251287617833200,11.998833251953124,-0.16876220703125,-0.9784088134765625,-0.1313629150390625
1773251287627869200,12.008869140625,-0.1684722900390625,-0.9794158935546875,-0.129547119140625
1773251287637905200,12.0189052734375,-0.1694183349609375,-0.9792022705078125,-0.1280517578125
1773251287647941000,12.028941162109374,-0.1724395751953125,-0.9766845703125,-0.130706787109375
1773251287657977000,12.03897705078125,-0.171966552734375,-0.97552490234375,-0.129486083984375
1773251287668013000,12.049012939453124,-0.16937255859375,-0.9727783203125,-0.1259613037109375
1773251287678049000,12.059049072265625,-0.1619415283203125,-0.9742279052734375,-0.125244140625
1773251287688085000,12.0690849609375,-0.156646728515625,-0.9774017333984375,-0.124969482421875
1773251287698121000,12.079120849609374,-0.1514434814453125,-0.980926513671875,-0.1243743896484375
1773251287708158000,12.089157958984375,-0.1519622802734375,-0.9838714599609375,-0.1241607666015625
1773251287718194000,12.09919384765625,-0.154449462890625,-0.981842041015625,-0.1279754638671875
1773251287728230000,12.10922998046875,-0.158111572265625,-0.976837158203125,-0.1317138671875
1773251287738266000,12.11926611328125,-0.162445068359375,-0.974151611328125,-0.1297760009765625
1773251287748302000,12.129302001953125,-0.1626129150390625,-0.972412109375,-0.12420654296875
1773251287758338000,12.139338134765625,-0.1588592529296875,-0.9730682373046875,-0.1212158203125
1773251287768374300,12.149374267578125,-0.1581573486328125,-0.9724884033203125,-0.1172027587890625
1773251287778410200,12.15941015625,-0.1667327880859375,-0.9718475341796875,-0.1151123046875
1773251287788446200,12.1694462890625,-0.1719970703125,-0.9724578857421875,-0.1177215576171875
1773251287798483200,12.179483154296875,-0.17462158203125,-0.972747802734375,-0.122344970703125
1773251287808519200,12.189519287109375,-0.1688690185546875,-0.97509765625,-0.1273193359375
1773251287818555100,12.19955517578125,-0.1629638671875,-0.9757232666015625,-0.128265380859375
1773251287828591000,12.209591064453125,-0.156463623046875,-0.9779815673828125,-0.12493896484375
1773251287838627000,12.219626953125,-0.155487060546875,-0.9796905517578125,-0.1224212646484375
1773251287848663000,12.2296630859375,-0.159271240234375,-0.981781005859375,-0.1238250732421875
1773251287858699000,12.239698974609375,-0.16943359375,-0.9814300537109375,-0.124969482421875
1773251287868735000,12.24973486328125,-0.1745147705078125,-0.979278564453125,-0.1232452392578125
1773251287878771000,12.25977099609375,-0.1752166748046875,-0.9772796630859375,-0.1215667724609375
1773251287888808000,12.269807861328125,-0.1755218505859375,-0.976226806640625,-0.12115478515625
1773251287898844000,12.279843994140625,-0.16796875,-0.9769287109375,-0.11932373046875
1773251287908880000,12.2898798828125,-0.157501220703125,-0.9766998291015625,-0.1197357177734375
1773251287918916000,12.299916015625,-0.151824951171875,-0.9814605712890625,-0.12213134765625
1773251287928952000,12.3099521484375,-0.1472625732421875,-0.9823760986328125,-0.125030517578125
1773251287938988300,12.31998828125,-0.14837646484375,-0.984161376953125,-0.1281890869140625
1773251287949024300,12.330024169921876,-0.1524505615234375,-0.9810638427734375,-0.1265716552734375
1773251287959060200,12.340060302734376,-0.161376953125,-0.97979736328125,-0.1242218017578125
1773251287969096200,12.35009619140625,-0.1728515625,-0.9844818115234375,-0.1243438720703125
1773251287979133200,12.36013330078125,-0.18560791015625,-0.983978271484375,-0.1235504150390625
1773251287989169200,12.370169189453126,-0.1945953369140625,-0.981048583984375,-0.1217193603515625
1773251287999205000,12.380205078125,-0.198883056640625,-0.9766998291015625,-0.121917724609375
1773251288009241000,12.390240966796876,-0.195709228515625,-0.9740447998046875,-0.123016357421875
1773251288019277000,12.400277099609376,-0.1849822998046875,-0.9728851318359375,-0.12982177734375
1773251288029313000,12.41031298828125,-0.1722412109375,-0.9780426025390625,-0.1346282958984375
1773251288039349000,12.420348876953126,-0.1607513427734375,-0.9771728515625,-0.13726806640625
1773251288049385000,12.430385009765626,-0.15582275390625,-0.9783172607421875,-0.135528564453125
1773251288059421200,12.440421142578124,-0.1553192138671875,-0.9743499755859375,-0.1319580078125
1773251288069458000,12.4504580078125,-0.159912109375,-0.9706268310546875,-0.126953125
1773251288079494000,12.460493896484374,-0.16839599609375,-0.9682464599609375,-0.1259765625
1773251288089530000,12.470530029296874,-0.1757049560546875,-0.9674072265625,-0.12457275390625
1773251288099566000,12.480566162109374,-0.1796112060546875,-0.9674530029296875,-0.1239013671875
1773251288109602000,12.49060205078125,-0.1885833740234375,-0.9684600830078125,-0.1235198974609375
1773251288119638300,12.50063818359375,-0.19482421875,-0.9662933349609375,-0.122711181640625
1773251288129674200,12.51067431640625,-0.198699951171875,-0.96502685546875,-0.12127685546875
1773251288139710200,12.520710205078124,-0.1999053955078125,-0.9620819091796875,-0.122711181640625
1773251288149746200,12.53074609375,-0.1990814208984375,-0.9632110595703125,-0.12396240234375
1773251288159783200,12.540783203125,-0.1953582763671875,-0.963531494140625,-0.126953125
1773251288169819100,12.550819091796875,-0.1928558349609375,-0.96282958984375,-0.1274566650390625
1773251288179855000,12.560855224609375,-0.1896820068359375,-0.967681884765625,-0.128875732421875
1773251288189891000,12.57089111328125,-0.1884613037109375,-0.9671630859375,-0.13031005859375
1773251288199926500,12.580926513671875,-0.1886444091796875,-0.9687347412109375,-0.130401611328125
1773251288209962500,12.59096240234375,-0.1969757080078125,-0.9661712646484375,-0.128662109375
1773251288219998700,12.600998779296875,-0.2019500732421875,-0.9651641845703125,-0.1249847412109375
1773251288230034700,12.61103466796875,-0.205657958984375,-0.964080810546875,-0.12506103515625
1773251288240070700,12.621070556640625,-0.21209716796875,-0.965057373046875,-0.1276397705078125
1773251288250106600,12.631106689453125,-0.214691162109375,-0.9662933349609375,-0.13037109375
1773251288260143600,12.6411435546875,-0.2168426513671875,-0.9674835205078125,-0.1323699951171875
1773251288270179600,12.6511796875,-0.2158966064453125,-0.9698333740234375,-0.133087158203125
1773251288280215600,12.661215576171875,-0.2160491943359375,-0.9707489013671875,-0.1298065185546875
1773251288290251500,12.67125146484375,-0.21636962890625,-0.9710845947265625,-0.1272125244140625
1773251288300287500,12.68128759765625,-0.21337890625,-0.9722747802734375,-0.128204345703125
1773251288310323500,12.691323486328125,-0.2129058837890625,-0.972259521484375,-0.13079833984375
1773251288320359400,12.701359375,-0.2134552001953125,-0.970733642578125,-0.13287353515625
1773251288330395400,12.7113955078125,-0.21356201171875,-0.9699859619140625,-0.1351318359375
1773251288340432400,12.721432373046875,-0.2148895263671875,-0.9685211181640625,-0.1331329345703125
1773251288350468400,12.73146826171875,-0.215667724609375,-0.968353271484375,-0.127777099609375
1773251288360504300,12.74150439453125,-0.216827392578125,-0.9698486328125,-0.1258544921875
1773251288370540500,12.75154052734375,-0.214599609375,-0.9669342041015625,-0.1261138916015625
1773251288380576500,12.761576416015625,-0.2132110595703125,-0.97052001953125,-0.127777099609375
1773251288390612500,12.771612548828125,-0.213531494140625,-0.9694366455078125,-0.1274566650390625
1773251288400648700,12.781648681640625,-0.21337890625,-0.9694976806640625,-0.12762451171875
1773251288410684700,12.7916845703125,-0.2101593017578125,-0.9697265625,-0.1297760009765625
1773251288420720600,12.801720703125,-0.204925537109375,-0.9708099365234375,-0.1294097900390625
1773251288430757600,12.811757568359376,-0.19940185546875,-0.9698638916015625,-0.1282958984375
1773251288440793600,12.821793701171876,-0.196044921875,-0.972625732421875,-0.1258392333984375
1773251288450829600,12.83182958984375,-0.19500732421875,-0.9701995849609375,-0.1207122802734375
